sep=,
Measurement Mode:,Complete (Euler)
StartTime:,Fri, 03 Jun 2022 10:56:23 GMT
© Xsens Technologies B. V. 2005-2022

Timestamp,Address,Euler_x,Euler_y,Euler_z,FreeAcc_x,FreeAcc_y,FreeAcc_z
456873514,d4:22:cd:00:30:92,-88.86141204833984,2.496642589569092,-175.0773162841797,-0.048676203936338425,-0.05952891707420349,0.4075651168823242
456890181,d4:22:cd:00:30:92,-88.85842895507812,2.505753993988037,-175.08766174316406,-0.050127167254686356,-0.0475030355155468,0.36420536041259766
456906848,d4:22:cd:00:30:92,-88.84903717041016,2.520353317260742,-175.0984344482422,0.023845506832003593,-0.03381345793604851,-0.09646129608154297
456923515,d4:22:cd:00:30:92,-88.85090637207031,2.518690586090088,-175.11334228515625,0.07167479395866394,0.005327706690877676,-0.2988290786743164
456940182,d4:22:cd:00:30:92,-88.86355590820312,2.5052781105041504,-175.1329803466797,-0.05008721351623535,0.07204141467809677,-0.04790496826171875
456956849,d4:22:cd:00:30:92,-88.87108612060547,2.5000054836273193,-175.14614868164062,-0.06057664752006531,0.09911952167749405,0.3112974166870117
456973516,d4:22:cd:00:30:92,-88.87129974365234,2.5083725452423096,-175.13961791992188,0.04462659731507301,0.07323086261749268,0.08633232116699219
456990183,d4:22:cd:00:30:92,-88.86698150634766,2.505962371826172,-175.1400909423828,0.09585629403591156,0.0075144777074456215,-0.20924854278564453
457006850,d4:22:cd:00:30:92,-88.86017608642578,2.4878809452056885,-175.12867736816406,0.03543320298194885,-0.025413669645786285,-0.14322280883789062
457023517,d4:22:cd:00:30:92,-88.85778045654297,2.4679572582244873,-175.1275177001953,0.038738761097192764,-0.03320560231804848,0.1388845443725586
457040184,d4:22:cd:00:30:92,-88.85494232177734,2.462313413619995,-175.13711547851562,0.04711270332336426,-0.03304550424218178,0.3077259063720703
457056851,d4:22:cd:00:30:92,-88.85147857666016,2.4714202880859375,-175.14625549316406,-0.017823509871959686,0.013653495348989964,0.14680957794189453
457073518,d4:22:cd:00:30:92,-88.85115051269531,2.481333017349243,-175.15318298339844,0.017655037343502045,0.055255573242902756,-0.038105010986328125
457090185,d4:22:cd:00:30:92,-88.85282897949219,2.4850387573242188,-175.14772033691406,0.0523696169257164,0.08089237660169601,-0.061415672302246094
457106852,d4:22:cd:00:30:92,-88.85753631591797,2.4868102073669434,-175.14053344726562,-0.016349079087376595,0.07720031589269638,0.018259048461914062
457123519,d4:22:cd:00:30:92,-88.86016082763672,2.4918272495269775,-175.11965942382812,-0.07099509239196777,0.06542941182851791,0.07649993896484375
457140186,d4:22:cd:00:30:92,-88.8603744506836,2.499746799468994,-175.09747314453125,-0.04843338578939438,-0.0021412784699350595,0.0712289810180664
457156853,d4:22:cd:00:30:92,-88.8637466430664,2.5078232288360596,-175.07859802246094,-0.015997130423784256,-0.07603397220373154,-0.02065753936767578
457173520,d4:22:cd:00:30:92,-88.87299346923828,2.511431932449341,-175.07435607910156,-0.048699479550123215,-0.13297396898269653,-0.05560016632080078
457190187,d4:22:cd:00:30:92,-88.87946319580078,2.508873462677002,-175.0811309814453,-0.04152236506342888,-0.14239296317100525,0.0018091201782226562
457206854,d4:22:cd:00:30:92,-88.8814468383789,2.5025393962860107,-175.09849548339844,-0.009488153271377087,-0.12775686383247375,0.023456573486328125
457223521,d4:22:cd:00:30:92,-88.87806701660156,2.49522066116333,-175.13304138183594,0.009905479848384857,-0.0511508584022522,0.020488739013671875
457240188,d4:22:cd:00:30:92,-88.86862182617188,2.4853897094726562,-175.1720428466797,0.027949567884206772,0.05820658802986145,0.011349678039550781
457256855,d4:22:cd:00:30:92,-88.85906982421875,2.474266290664673,-175.20208740234375,0.05843433365225792,0.11183039098978043,0.027113914489746094
457273522,d4:22:cd:00:30:92,-88.85565948486328,2.4657695293426514,-175.21705627441406,0.06255169212818146,0.13630759716033936,0.04421043395996094
457290189,d4:22:cd:00:30:92,-88.85620880126953,2.4598805904388428,-175.2184600830078,0.05345974490046501,0.1615547239780426,0.07320976257324219
457306856,d4:22:cd:00:30:92,-88.85517883300781,2.459975242614746,-175.2059783935547,0.02005578950047493,0.12159811705350876,0.1161346435546875
457323523,d4:22:cd:00:30:92,-88.85345458984375,2.4667911529541016,-175.18174743652344,0.03043506108224392,0.08512409776449203,0.06732845306396484
457340190,d4:22:cd:00:30:92,-88.85298156738281,2.471590518951416,-175.15196228027344,0.02233067713677883,0.013311244547367096,-0.05883979797363281
457356857,d4:22:cd:00:30:92,-88.85262298583984,2.4699254035949707,-175.12478637695312,0.006538396701216698,-0.05970492586493492,-0.06229686737060547
457373524,d4:22:cd:00:30:92,-88.85326385498047,2.4633140563964844,-175.11412048339844,-0.0439465306699276,-0.11436086148023605,0.020850181579589844
457390191,d4:22:cd:00:30:92,-88.8492431640625,2.4623870849609375,-175.1184539794922,-0.04380233585834503,-0.11823666095733643,0.1944751739501953
457406858,d4:22:cd:00:30:92,-88.84444427490234,2.4712464809417725,-175.1331329345703,-0.013697711750864983,-0.08055970817804337,0.21126174926757812
457423525,d4:22:cd:00:30:92,-88.83345031738281,2.484628677368164,-175.1408233642578,0.07685582339763641,0.002504653064534068,0.01493072509765625
457440192,d4:22:cd:00:30:92,-88.81627655029297,2.488509178161621,-175.15731811523438,0.08523745089769363,0.05950981378555298,-0.2024974822998047
457456859,d4:22:cd:00:30:92,-88.80071258544922,2.4761765003204346,-175.16549682617188,0.006739306729286909,0.11896641552448273,-0.041355133056640625
457473526,d4:22:cd:00:30:92,-88.77595520019531,2.4704720973968506,-175.14889526367188,-0.06779519468545914,0.13761375844478607,0.17526531219482422
457490193,d4:22:cd:00:30:92,-88.74015808105469,2.4700212478637695,-175.11524963378906,-0.056046657264232635,0.09542546421289444,0.11804962158203125
457506860,d4:22:cd:00:30:92,-88.72600555419922,2.479865312576294,-175.08531188964844,-0.005287450272589922,-0.004861744586378336,-0.05760002136230469
457523527,d4:22:cd:00:30:92,-88.73003387451172,2.4828996658325195,-175.06161499023438,-0.026442086324095726,-0.07918526977300644,-0.13173770904541016
457540194,d4:22:cd:00:30:92,-88.73431396484375,2.4831173419952393,-175.04940795898438,0.0014912225306034088,-0.14244727790355682,0.046100616455078125
457556861,d4:22:cd:00:30:92,-88.7311019897461,2.488086462020874,-175.06056213378906,0.023201650008559227,-0.16706719994544983,0.23874568939208984
457573528,d4:22:cd:00:30:92,-88.7238540649414,2.5081284046173096,-175.0850830078125,0.06792212277650833,-0.08484110236167908,0.22064590454101562
457590195,d4:22:cd:00:30:92,-88.71123504638672,2.533159017562866,-175.11268615722656,0.12791110575199127,0.04552333429455757,0.02565479278564453
457606862,d4:22:cd:00:30:92,-88.69916534423828,2.550243616104126,-175.1321258544922,0.06112316623330116,0.1764911413192749,-0.1294078826904297
457623529,d4:22:cd:00:30:92,-88.68406677246094,2.5598745346069336,-175.125,-0.022075144574046135,0.2342081516981125,0.0041446685791015625
457640196,d4:22:cd:00:30:92,-88.66499328613281,2.572087287902832,-175.08694458007812,-0.06029326096177101,0.22308550775051117,0.0984792709350586
457656863,d4:22:cd:00:30:92,-88.64627838134766,2.591409683227539,-175.03256225585938,0.002677349839359522,0.16839848458766937,0.049592018127441406
457673530,d4:22:cd:00:30:92,-88.62554931640625,2.6086814403533936,-174.95712280273438,0.057571545243263245,0.09767763316631317,-0.024106979370117188
457690197,d4:22:cd:00:30:92,-88.59463500976562,2.618995189666748,-174.88572692871094,-0.0029550648760050535,-0.03168562799692154,-0.027121543884277344
457706864,d4:22:cd:00:30:92,-88.57091522216797,2.6284024715423584,-174.8194122314453,-0.09271308779716492,-0.15694428980350494,-0.0023956298828125
457723531,d4:22:cd:00:30:92,-88.55633544921875,2.639930486679077,-174.77804565429688,-0.1405034065246582,-0.25610023736953735,0.007241249084472656
457740198,d4:22:cd:00:30:92,-88.5488510131836,2.6507883071899414,-174.76205444335938,-0.1378290355205536,-0.30518805980682373,-0.06897354125976562
457756865,d4:22:cd:00:30:92,-88.5541763305664,2.655669689178467,-174.78271484375,-0.11355799436569214,-0.3263060748577118,-0.1226358413696289
457773532,d4:22:cd:00:30:92,-88.57244873046875,2.652522563934326,-174.82630920410156,-0.044218771159648895,-0.2687841057777405,-0.10891246795654297
457790199,d4:22:cd:00:30:92,-88.59591674804688,2.6464617252349854,-174.88356018066406,0.03666484355926514,-0.12308875471353531,0.09074974060058594
457806866,d4:22:cd:00:30:92,-88.61014556884766,2.6444287300109863,-174.94810485839844,0.015653785318136215,0.07384472340345383,0.13916778564453125
457823533,d4:22:cd:00:30:92,-88.61198425292969,2.639303207397461,-175.00440979003906,0.005409432575106621,0.1682620495557785,0.006926536560058594
457840200,d4:22:cd:00:30:92,-88.61139678955078,2.62508225440979,-175.03475952148438,0.040891025215387344,0.17118124663829803,-0.07583332061767578
457856867,d4:22:cd:00:30:92,-88.61441040039062,2.6109092235565186,-175.06011962890625,0.08969669789075851,0.14058376848697662,0.09072113037109375
457873534,d4:22:cd:00:30:92,-88.61882781982422,2.6034185886383057,-175.07786560058594,-0.03711175546050072,0.10429795831441879,0.13176345825195312
457890201,d4:22:cd:00:30:92,-88.60921478271484,2.6044156551361084,-175.09561157226562,-0.18417268991470337,0.1320866197347641,0.2517843246459961
457906868,d4:22:cd:00:30:92,-88.59085845947266,2.6180121898651123,-175.08316040039062,0.018151039257645607,0.06740069389343262,0.0817270278930664
457923535,d4:22:cd:00:30:92,-88.59332275390625,2.62379789352417,-175.06674194335938,0.2630390524864197,-0.10414648056030273,-0.3902921676635742
457940202,d4:22:cd:00:30:92,-88.60468292236328,2.6009604930877686,-175.08285522460938,0.18885837495326996,-0.14967036247253418,-0.3283882141113281
457956869,d4:22:cd:00:30:92,-88.62667083740234,2.5714833736419678,-175.1074676513672,0.0603252537548542,-0.11534822732210159,0.13035869598388672
457973536,d4:22:cd:00:30:92,-88.6370620727539,2.5620622634887695,-175.14674377441406,-0.02303619496524334,0.03338715061545372,0.49851322174072266
457990203,d4:22:cd:00:30:92,-88.61822509765625,2.573713541030884,-175.1693572998047,-0.013410554267466068,0.1615377515554428,0.3352203369140625
458006870,d4:22:cd:00:30:92,-88.59336853027344,2.5874903202056885,-175.18492126464844,0.04524514079093933,0.2036348283290863,-0.13811111450195312
458023537,d4:22:cd:00:30:92,-88.58616638183594,2.586102247238159,-175.1658935546875,0.07159455120563507,0.21258708834648132,-0.34562015533447266
458040204,d4:22:cd:00:30:92,-88.5933609008789,2.574000835418701,-175.13558959960938,0.047362033277750015,0.13956202566623688,-0.027078628540039062
458056871,d4:22:cd:00:30:92,-88.60523986816406,2.57361102104187,-175.08966064453125,-0.045941662043333054,0.06913849711418152,0.2747030258178711
458073538,d4:22:cd:00:30:92,-88.60559844970703,2.5854034423828125,-175.04989624023438,-0.15022772550582886,-0.056266143918037415,0.23203086853027344
458090205,d4:22:cd:00:30:92,-88.60369873046875,2.6032187938690186,-175.01808166503906,-0.06157848984003067,-0.17922280728816986,0.010067939758300781
458106872,d4:22:cd:00:30:92,-88.60600280761719,2.6143343448638916,-175.0088653564453,0.057600684463977814,-0.280756413936615,-0.1650094985961914
458123539,d4:22:cd:00:30:92,-88.61479949951172,2.613726854324341,-175.02618408203125,0.03680185601115227,-0.23174315690994263,-0.15998077392578125
458140206,d4:22:cd:00:30:92,-88.61991119384766,2.6050658226013184,-175.0655059814453,-0.02264281176030636,-0.08689049631357193,0.06349658966064453
458156873,d4:22:cd:00:30:92,-88.6144027709961,2.6033620834350586,-175.10227966308594,-0.03926172852516174,0.05339767783880234,0.27967357635498047
458173540,d4:22:cd:00:30:92,-88.60043334960938,2.619089126586914,-175.1278533935547,0.06159631535410881,0.16711658239364624,0.21600627899169922
458190207,d4:22:cd:00:30:92,-88.58688354492188,2.6373472213745117,-175.13697814941406,0.1404649019241333,0.23119573295116425,-0.06962299346923828
458206874,d4:22:cd:00:30:92,-88.57929992675781,2.64457631111145,-175.1244659423828,0.13211087882518768,0.24978069961071014,-0.19665908813476562
458223541,d4:22:cd:00:30:92,-88.57804870605469,2.6400575637817383,-175.07962036132812,-0.015107939019799232,0.23184825479984283,-0.07773590087890625
458240208,d4:22:cd:00:30:92,-88.57239532470703,2.636019468307495,-175.01351928710938,-0.08191314339637756,0.11823368817567825,0.20812225341796875
458256875,d4:22:cd:00:30:92,-88.55499267578125,2.6451516151428223,-174.95045471191406,-0.022925248369574547,-0.08698371797800064,0.3073387145996094
458273542,d4:22:cd:00:30:92,-88.53675079345703,2.6706395149230957,-174.91268920898438,-0.020559700205922127,-0.2457246333360672,0.19007015228271484
458290209,d4:22:cd:00:30:92,-88.53377532958984,2.7011642456054688,-174.9008331298828,-0.05422315374016762,-0.2798007130622864,-0.10565185546875
458306876,d4:22:cd:00:30:92,-88.5313720703125,2.716593027114868,-174.91494750976562,-0.018564986065030098,-0.21100714802742004,-0.1878643035888672
458323543,d4:22:cd:00:30:92,-88.52852630615234,2.7186474800109863,-174.94161987304688,0.03033425658941269,-0.09021065384149551,-0.11705970764160156
458340210,d4:22:cd:00:30:92,-88.52661895751953,2.7117788791656494,-174.9690399169922,-0.009284141473472118,0.0023520246613770723,-0.05990123748779297
458356877,d4:22:cd:00:30:92,-88.52763366699219,2.700676679611206,-174.99838256835938,-0.13057300448417664,0.11056448519229889,0.058109283447265625
458373544,d4:22:cd:00:30:92,-88.52699279785156,2.7009501457214355,-175.00704956054688,-0.10357246547937393,0.17260760068893433,0.1852283477783203
458390211,d4:22:cd:00:30:92,-88.51775360107422,2.7085320949554443,-175.00173950195312,-0.0057677519507706165,0.14676450192928314,0.08245468139648438
458406878,d4:22:cd:00:30:92,-88.51097106933594,2.71307373046875,-174.97967529296875,0.03205147758126259,0.11227316409349442,-0.13760757446289062
458423545,d4:22:cd:00:30:92,-88.51045227050781,2.7042250633239746,-174.95474243164062,0.028113404288887978,0.025318240746855736,-0.1715555191040039
458440212,d4:22:cd:00:30:92,-88.51638793945312,2.6881942749023438,-174.93727111816406,-0.03158782795071602,-0.06401794403791428,0.005397796630859375
458456879,d4:22:cd:00:30:92,-88.52244567871094,2.678661584854126,-174.92919921875,-0.08386407047510147,-0.1363939344882965,0.23476314544677734
458473546,d4:22:cd:00:30:92,-88.52117919921875,2.682166576385498,-174.93844604492188,0.00528289657086134,-0.17411939799785614,0.2668600082397461
458490213,d4:22:cd:00:30:92,-88.51936340332031,2.6909258365631104,-174.95887756347656,0.013640213757753372,-0.10841858386993408,-0.036698341369628906
458506880,d4:22:cd:00:30:92,-88.525634765625,2.6889636516571045,-174.9925994873047,-0.09125849604606628,-0.02310040406882763,-0.20415019989013672
458523547,d4:22:cd:00:30:92,-88.55028533935547,2.6804873943328857,-175.0217742919922,-0.09212217479944229,0.055608607828617096,-0.038468360900878906
458540214,d4:22:cd:00:30:92,-88.56942749023438,2.6771023273468018,-175.04510498046875,0.026176942512392998,0.06437917053699493,0.18741893768310547
458556881,d4:22:cd:00:30:92,-88.58119201660156,2.680715322494507,-175.0652618408203,0.1031424030661583,0.056218221783638,0.1823139190673828
458573548,d4:22:cd:00:30:92,-88.58653259277344,2.688062906265259,-175.08978271484375,0.14625461399555206,0.09100353717803955,0.0462799072265625
458590215,d4:22:cd:00:30:92,-88.59268188476562,2.6927011013031006,-175.10382080078125,0.03944497928023338,0.12419650703668594,-0.12665843963623047
458606882,d4:22:cd:00:30:92,-88.60917663574219,2.6919171810150146,-175.1101837158203,-0.05023512244224548,0.14569756388664246,-0.03691864013671875
458623549,d4:22:cd:00:30:92,-88.62247467041016,2.6926920413970947,-175.0970001220703,-0.03901116922497749,0.0892874225974083,0.08199214935302734
458640216,d4:22:cd:00:30:92,-88.63060760498047,2.6982734203338623,-175.0753173828125,0.06944429874420166,0.023495616391301155,0.13948535919189453
458656883,d4:22:cd:00:30:92,-88.63597869873047,2.704915761947632,-175.064208984375,0.07836148887872696,-0.042003333568573,0.03270244598388672
458673550,d4:22:cd:00:30:92,-88.63844299316406,2.7080721855163574,-175.0625457763672,-0.006949995644390583,-0.06540215760469437,0.016585350036621094
458690217,d4:22:cd:00:30:92,-88.63998413085938,2.714393377304077,-175.06350708007812,-0.025624195113778114,-0.051810458302497864,0.07442760467529297
458706884,d4:22:cd:00:30:92,-88.650146484375,2.726158857345581,-175.07643127441406,0.0373043417930603,-0.015736926347017288,-0.020092010498046875
458723551,d4:22:cd:00:30:92,-88.65663146972656,2.72920823097229,-175.0868682861328,0.06142421066761017,0.07752083986997604,-0.02572345733642578
458740218,d4:22:cd:00:30:92,-88.64523315429688,2.726466417312622,-175.08331298828125,0.02816064842045307,0.13771575689315796,0.09011459350585938
458756885,d4:22:cd:00:30:92,-88.62751007080078,2.728869676589966,-175.05908203125,-0.0068545835092663765,0.1568717211484909,0.06990242004394531
458773552,d4:22:cd:00:30:92,-88.61383056640625,2.7322981357574463,-175.02874755859375,0.04226269572973251,0.12726479768753052,-0.014179229736328125
458790219,d4:22:cd:00:30:92,-88.60916900634766,2.736257553100586,-174.99053955078125,0.037046656012535095,0.0897020623087883,-0.0020599365234375
458806886,d4:22:cd:00:30:92,-88.60287475585938,2.7373387813568115,-174.9390411376953,0.00625685416162014,0.04009530320763588,0.007986068725585938
458823553,d4:22:cd:00:30:92,-88.588623046875,2.7365872859954834,-174.89674377441406,-0.028280815109610558,-0.05198447406291962,0.0548553466796875
458840220,d4:22:cd:00:30:92,-88.57272338867188,2.737788677215576,-174.86798095703125,-0.0368553027510643,-0.11842290312051773,0.1398334503173828
458856887,d4:22:cd:00:30:92,-88.55184936523438,2.747602939605713,-174.848876953125,-0.04468635842204094,-0.10935598611831665,0.09259986877441406
458873554,d4:22:cd:00:30:92,-88.53307342529297,2.760615110397339,-174.84036254882812,-0.020692409947514534,-0.06157291680574417,0.0024356842041015625
458890221,d4:22:cd:00:30:92,-88.51994323730469,2.770143747329712,-174.83326721191406,-0.10151760280132294,0.014327985234558582,-0.08347320556640625
458906888,d4:22:cd:00:30:92,-88.50624084472656,2.773432493209839,-174.82435607910156,-0.06217121705412865,0.04806900396943092,-0.02155590057373047
458923555,d4:22:cd:00:30:92,-88.49596405029297,2.777195453643799,-174.80555725097656,0.027608180418610573,0.011140275746583939,-0.0054988861083984375
458940222,d4:22:cd:00:30:92,-88.48981475830078,2.7771072387695312,-174.79428100585938,0.010259272530674934,-0.0005057177040725946,0.018288612365722656
458956889,d4:22:cd:00:30:92,-88.48640441894531,2.778864622116089,-174.78236389160156,-0.08652625232934952,-0.014576726593077183,0.05229663848876953
458973556,d4:22:cd:00:30:92,-88.48138427734375,2.781998634338379,-174.77334594726562,-0.03199322521686554,-0.05218749865889549,0.07011127471923828
458990223,d4:22:cd:00:30:92,-88.47892761230469,2.787710189819336,-174.77096557617188,0.041565585881471634,-0.07659696042537689,0.014388084411621094
459006890,d4:22:cd:00:30:92,-88.4775161743164,2.7890048027038574,-174.7750701904297,-0.011961603537201881,-0.017086874693632126,-0.11193275451660156
459023557,d4:22:cd:00:30:92,-88.47107696533203,2.7777621746063232,-174.7802734375,-0.05415501073002815,0.0015085028717294335,-0.036797523498535156
459040224,d4:22:cd:00:30:92,-88.46481323242188,2.767886161804199,-174.78289794921875,-0.03546088933944702,0.004030448850244284,0.08611583709716797
459056891,d4:22:cd:00:30:92,-88.45841979980469,2.7611818313598633,-174.7874755859375,-0.0580429881811142,-0.023660384118556976,0.06437206268310547
459073558,d4:22:cd:00:30:92,-88.45851135253906,2.757848024368286,-174.79449462890625,-0.026878299191594124,-0.02816976048052311,0.014641761779785156
459090225,d4:22:cd:00:30:92,-88.46426391601562,2.7538037300109863,-174.80592346191406,0.016747601330280304,-0.05064621940255165,-0.021778106689453125
459106892,d4:22:cd:00:30:92,-88.47288513183594,2.7455930709838867,-174.82579040527344,0.0341123528778553,-0.011750191450119019,0.0073261260986328125
459123559,d4:22:cd:00:30:92,-88.48164367675781,2.740861415863037,-174.84303283691406,-0.004412648733705282,0.03111518919467926,0.07118606567382812
459140226,d4:22:cd:00:30:92,-88.48387145996094,2.737459897994995,-174.85903930664062,-0.06208441033959389,0.05977868661284447,0.01729106903076172
459156893,d4:22:cd:00:30:92,-88.4837875366211,2.7286524772644043,-174.86813354492188,0.0017772911814972758,0.046539682894945145,-0.025543212890625
459173560,d4:22:cd:00:30:92,-88.49195861816406,2.721414089202881,-174.8767852783203,0.07242808490991592,0.008171694353222847,0.0016202926635742188
459190227,d4:22:cd:00:30:92,-88.49980926513672,2.712529420852661,-174.88890075683594,-0.03234006091952324,0.04240243881940842,0.07561779022216797
459206894,d4:22:cd:00:30:92,-88.50296020507812,2.7081258296966553,-174.90313720703125,-0.020308274775743484,0.027481060475111008,0.078460693359375
459223561,d4:22:cd:00:30:92,-88.50255584716797,2.7015209197998047,-174.912109375,0.04834001138806343,-0.005400644149631262,-0.021184921264648438
459240228,d4:22:cd:00:30:92,-88.508056640625,2.691282033920288,-174.92526245117188,0.03076711669564247,-0.015563308261334896,-0.01826000213623047
459256895,d4:22:cd:00:30:92,-88.51568603515625,2.6842665672302246,-174.9430694580078,-0.004716654308140278,0.03131309524178505,0.1013174057006836
459273562,d4:22:cd:00:30:92,-88.51507568359375,2.6814467906951904,-174.95623779296875,-0.03475598618388176,0.047844674438238144,0.15680789947509766
459290229,d4:22:cd:00:30:92,-88.5122299194336,2.6859936714172363,-174.96878051757812,-0.022710537537932396,0.03871292620897293,0.057351112365722656
459306896,d4:22:cd:00:30:92,-88.517333984375,2.69207501411438,-174.97607421875,0.06486382335424423,0.03171408548951149,-0.07481670379638672
459323563,d4:22:cd:00:30:92,-88.5308609008789,2.68765926361084,-174.98004150390625,0.07644953578710556,0.05222804844379425,-0.13433837890625
459340230,d4:22:cd:00:30:92,-88.54279327392578,2.6763482093811035,-174.98593139648438,0.03985297307372093,0.07674631476402283,0.07400321960449219
459356897,d4:22:cd:00:30:92,-88.5470962524414,2.6727676391601562,-174.9877471923828,-0.022124681621789932,0.0869518518447876,0.22673416137695312
459373564,d4:22:cd:00:30:92,-88.54297637939453,2.679647445678711,-174.98077392578125,-0.030420225113630295,0.05847841501235962,0.18017578125
459390231,d4:22:cd:00:30:92,-88.53900909423828,2.688922882080078,-174.97467041015625,0.013834669254720211,-0.0035808237735182047,-0.04300403594970703
459406898,d4:22:cd:00:30:92,-88.54202270507812,2.6882541179656982,-174.97377014160156,0.015153368003666401,-0.022808564826846123,-0.1622323989868164
459423565,d4:22:cd:00:30:92,-88.54024505615234,2.6785476207733154,-174.97145080566406,-0.006159486249089241,-0.011429508216679096,-0.01824474334716797
459440232,d4:22:cd:00:30:92,-88.5341796875,2.672567129135132,-174.96971130371094,0.012406701222062111,-0.01695435866713524,0.1532583236694336
459456899,d4:22:cd:00:30:92,-88.52117919921875,2.670638084411621,-174.97044372558594,0.02023323066532612,0.011457073502242565,0.10809516906738281
459473566,d4:22:cd:00:30:92,-88.50970458984375,2.6730711460113525,-174.96945190429688,0.04457518830895424,0.07164926081895828,0.02124500274658203
459490233,d4:22:cd:00:30:92,-88.49988555908203,2.674344539642334,-174.96383666992188,0.0884072557091713,0.13437524437904358,0.02547454833984375
459506900,d4:22:cd:00:30:92,-88.48751831054688,2.677816867828369,-174.94577026367188,0.01461858581751585,0.15407004952430725,0.10334396362304688
459523567,d4:22:cd:00:30:92,-88.47344207763672,2.688934803009033,-174.9164276123047,0.030905527994036674,0.14188310503959656,0.10850238800048828
459540234,d4:22:cd:00:30:92,-88.45687103271484,2.7022242546081543,-174.87925720214844,0.044385120272636414,0.0957266092300415,0.0064640045166015625
459556901,d4:22:cd:00:30:92,-88.44151306152344,2.7108194828033447,-174.83377075195312,-0.022917313501238823,0.010416182689368725,-0.007975578308105469
459573568,d4:22:cd:00:30:92,-88.42273712158203,2.7187323570251465,-174.79437255859375,-0.10636626929044724,-0.07662676274776459,0.10909366607666016
459590235,d4:22:cd:00:30:92,-88.40409088134766,2.7374484539031982,-174.77206420898438,-0.10819345712661743,-0.1775432825088501,0.16804218292236328
459606902,d4:22:cd:00:30:92,-88.39363861083984,2.7628848552703857,-174.76805114746094,-0.09799160063266754,-0.23243555426597595,-0.038155555725097656
459623569,d4:22:cd:00:30:92,-88.3904800415039,2.7823691368103027,-174.7838134765625,-0.049282148480415344,-0.18429839611053467,-0.07250404357910156
459640236,d4:22:cd:00:30:92,-88.3910140991211,2.795389175415039,-174.8115234375,-0.08161790668964386,-0.09514448791742325,-0.05524444580078125
459656903,d4:22:cd:00:30:92,-88.39410400390625,2.806785821914673,-174.8462371826172,-0.05433552339673042,-0.025401035323739052,0.044569969177246094
459673570,d4:22:cd:00:30:92,-88.39530944824219,2.82077956199646,-174.88255310058594,0.004935920238494873,0.031232070177793503,0.1280689239501953
459690237,d4:22:cd:00:30:92,-88.39468383789062,2.8391051292419434,-174.9156951904297,0.023603415116667747,0.09326254576444626,-0.005864143371582031
459706904,d4:22:cd:00:30:92,-88.39425659179688,2.8456926345825195,-174.93853759765625,-0.06963677704334259,0.08217854052782059,-0.18523597717285156
459723571,d4:22:cd:00:30:92,-88.39921569824219,2.840820789337158,-174.95606994628906,0.003856939496472478,0.024543054401874542,-0.06342220306396484
459740238,d4:22:cd:00:30:92,-88.41535949707031,2.837128162384033,-174.977294921875,0.05826178193092346,-0.03232412412762642,0.05045509338378906
459756905,d4:22:cd:00:30:92,-88.4261245727539,2.8341612815856934,-175.0035400390625,-0.04556144028902054,-0.006439500022679567,0.06042766571044922
459773572,d4:22:cd:00:30:92,-88.43480682373047,2.8299331665039062,-175.0270538330078,-0.0729958638548851,0.020779268816113472,-0.030358314514160156
459790239,d4:22:cd:00:30:92,-88.435302734375,2.818690299987793,-175.05447387695312,-0.14510564506053925,0.0362841859459877,0.007967948913574219
459806906,d4:22:cd:00:30:92,-88.42747497558594,2.817006826400757,-175.07472229003906,-0.1226397156715393,0.17821520566940308,0.33879756927490234
459823573,d4:22:cd:00:30:92,-88.42510986328125,2.836578845977783,-175.0655975341797,0.041503507643938065,0.1465698480606079,0.07686710357666016
459840240,d4:22:cd:00:30:92,-88.43077087402344,2.8342182636260986,-175.0560302734375,0.23628045618534088,-0.05002593994140625,-0.5421037673950195
459856907,d4:22:cd:00:30:92,-88.46651458740234,2.7916975021362305,-175.06878662109375,0.032066117972135544,-0.17976164817810059,-0.5052099227905273
459873574,d4:22:cd:00:30:92,-88.51589965820312,2.739499807357788,-175.098876953125,-0.25907957553863525,-0.1724422574043274,0.17523765563964844
459890241,d4:22:cd:00:30:92,-88.550048828125,2.7143497467041016,-175.1386260986328,-0.14484041929244995,-0.14977331459522247,0.5936298370361328
459906908,d4:22:cd:00:30:92,-88.55960845947266,2.7137176990509033,-175.1961212158203,0.07745232433080673,-0.10765568912029266,0.22148704528808594
459923575,d4:22:cd:00:30:92,-88.56159210205078,2.7027034759521484,-175.26290893554688,0.1924721896648407,-0.021943075582385063,-0.2978248596191406
459940242,d4:22:cd:00:30:92,-88.59353637695312,2.668076276779175,-175.33175659179688,0.3328429162502289,0.03540060296654701,-0.3001546859741211
459956909,d4:22:cd:00:30:92,-88.63896179199219,2.6197996139526367,-175.4036407470703,0.04681917652487755,-0.06887857615947723,-0.19351673126220703
459973576,d4:22:cd:00:30:92,-88.67601013183594,2.5686275959014893,-175.48199462890625,-0.0300565417855978,0.04571821168065071,0.12697982788085938
459990243,d4:22:cd:00:30:92,-88.70121765136719,2.529142141342163,-175.54693603515625,-0.008691804483532906,0.06961337476968765,0.29720211029052734
460006910,d4:22:cd:00:30:92,-88.71531677246094,2.5044593811035156,-175.61709594726562,0.04133396968245506,0.09151605516672134,0.24860668182373047
460023577,d4:22:cd:00:30:92,-88.71339416503906,2.4890060424804688,-175.68325805664062,0.013722354546189308,0.08141988515853882,0.11796951293945312
460040244,d4:22:cd:00:30:92,-88.70409393310547,2.4684484004974365,-175.74266052246094,0.06233524903655052,0.11203392595052719,0.012319564819335938
460056911,d4:22:cd:00:30:92,-88.69831848144531,2.4486968517303467,-175.79824829101562,0.09236421436071396,0.13300715386867523,0.02410411834716797
460073578,d4:22:cd:00:30:92,-88.7018814086914,2.4336304664611816,-175.83682250976562,0.026050211861729622,0.14673268795013428,0.09549903869628906
460090245,d4:22:cd:00:30:92,-88.70619201660156,2.430264472961426,-175.85667419433594,0.07098019868135452,0.2021750658750534,0.2643413543701172
460106912,d4:22:cd:00:30:92,-88.72672271728516,2.4523441791534424,-175.85816955566406,0.09110234677791595,0.24483908712863922,0.186676025390625
460123579,d4:22:cd:00:30:92,-88.74341583251953,2.471804141998291,-175.82215881347656,-0.05076412111520767,0.27049726247787476,-0.08716297149658203
460140246,d4:22:cd:00:30:92,-88.73063659667969,2.47883939743042,-175.7481689453125,0.2935220003128052,0.167771577835083,-0.10700321197509766
460156913,d4:22:cd:00:30:92,-88.85299682617188,2.468498468399048,-175.68130493164062,-0.15283186733722687,-0.20861703157424927,-1.3026599884033203
460173580,d4:22:cd:00:30:92,-88.8021240234375,2.41754150390625,-175.65399169921875,-0.4126741588115692,0.25199270248413086,1.9270648956298828
460190247,d4:22:cd:00:30:92,-88.78314208984375,2.515260696411133,-175.54095458984375,-0.19186390936374664,-0.3240257799625397,0.7720403671264648
460206914,d4:22:cd:00:30:92,-88.7619400024414,2.5690391063690186,-175.5557861328125,0.6486627459526062,-0.3004322052001953,-0.6055307388305664
460223581,d4:22:cd:00:30:92,-88.79344940185547,2.59570574760437,-175.56716918945312,0.059821005910634995,-0.29930174350738525,-0.8219966888427734
460240248,d4:22:cd:00:30:92,-88.82902526855469,2.5901150703430176,-175.61546325683594,0.16206862032413483,-0.06184849515557289,-0.010894775390625
460256915,d4:22:cd:00:30:92,-88.83258056640625,2.5916435718536377,-175.6672821044922,-0.029117144644260406,0.10372910648584366,0.6457071304321289
460273582,d4:22:cd:00:30:92,-88.85179901123047,2.64367938041687,-175.68560791015625,-0.11818979680538177,0.1323212832212448,0.423828125
460290249,d4:22:cd:00:30:92,-88.85687255859375,2.706305980682373,-175.68930053710938,0.33798515796661377,0.09697046130895615,-0.15695476531982422
460306916,d4:22:cd:00:30:92,-88.92263793945312,2.745425224304199,-175.68606567382812,0.5774061679840088,-0.03137176111340523,-1.1740636825561523
460323583,d4:22:cd:00:30:92,-89.00534057617188,2.6931166648864746,-175.7038116455078,0.04568967968225479,0.11293147504329681,-0.6695823669433594
460340250,d4:22:cd:00:30:92,-89.01521301269531,2.6345763206481934,-175.6923065185547,-0.305003821849823,0.21818184852600098,0.9642925262451172
460356917,d4:22:cd:00:30:92,-88.9923324584961,2.6611905097961426,-175.6457977294922,-0.1224435567855835,0.2115449160337448,1.0724496841430664
460373584,d4:22:cd:00:30:92,-88.97328186035156,2.7144479751586914,-175.58091735839844,0.16235539317131042,0.15126995742321014,-0.23530292510986328
460390251,d4:22:cd:00:30:92,-88.9866714477539,2.7240688800811768,-175.5060577392578,0.22672589123249054,0.07312566041946411,-0.8791618347167969
460406918,d4:22:cd:00:30:92,-89.00196838378906,2.6827926635742188,-175.43048095703125,0.07610537856817245,0.031277939677238464,-0.3449735641479492
460423585,d4:22:cd:00:30:92,-89.02142333984375,2.6535234451293945,-175.3485870361328,-0.13196934759616852,-0.0591522641479969,0.4095020294189453
460440252,d4:22:cd:00:30:92,-89.03060150146484,2.6555137634277344,-175.27586364746094,-0.18008528649806976,-0.18480081856250763,0.512237548828125
460456919,d4:22:cd:00:30:92,-89.00918579101562,2.664078712463379,-175.23895263671875,-0.24700582027435303,-0.21591638028621674,0.16055011749267578
460473586,d4:22:cd:00:30:92,-88.9822006225586,2.671022653579712,-175.22679138183594,-0.3158697783946991,-0.0673345997929573,0.028966903686523438
460490253,d4:22:cd:00:30:92,-88.95203399658203,2.6767475605010986,-175.2036895751953,-0.0644729807972908,-0.05681958794593811,-0.09385395050048828
460506920,d4:22:cd:00:30:92,-88.982177734375,2.6630606651306152,-175.1919708251953,0.03320888429880142,-0.1822918802499771,-0.9257946014404297
460523587,d4:22:cd:00:30:92,-88.94573974609375,2.5917563438415527,-175.20233154296875,-0.11633877456188202,-0.12888623774051666,0.040795326232910156
460540254,d4:22:cd:00:30:92,-88.8616714477539,2.5501010417938232,-175.2256317138672,-0.12185096740722656,-0.08869055658578873,0.6636171340942383
460556921,d4:22:cd:00:30:92,-88.75163269042969,2.534228563308716,-175.28794860839844,-0.24037404358386993,0.10921744257211685,0.4247865676879883
460573588,d4:22:cd:00:30:92,-88.56865692138672,2.5267930030822754,-175.3197784423828,-0.1439063549041748,0.3690699636936188,0.19799232482910156
460590255,d4:22:cd:00:30:92,-88.44035339355469,2.533846139907837,-175.2862548828125,0.17638801038265228,0.5790456533432007,0.13879108428955078
460606922,d4:22:cd:00:30:92,-88.27813720703125,2.5432517528533936,-175.19436645507812,0.4986070990562439,0.6189759373664856,-0.06368637084960938
460623589,d4:22:cd:00:30:92,-88.15555572509766,2.549044132232666,-175.03475952148438,0.2876792252063751,0.6509575247764587,-0.06108665466308594
460640256,d4:22:cd:00:30:92,-87.9633560180664,2.5323691368103027,-174.80897521972656,0.0919681191444397,0.6360707879066467,0.1356830596923828
460656923,d4:22:cd:00:30:92,-87.6656265258789,2.4783482551574707,-174.55271911621094,0.13597656786441803,0.37258169054985046,-0.015117645263671875
460673590,d4:22:cd:00:30:92,-87.41718292236328,2.4466168880462646,-174.27261352539062,-0.006281943526118994,0.024692900478839874,0.16573429107666016
460690257,d4:22:cd:00:30:92,-87.2908706665039,2.4475860595703125,-174.01351928710938,-0.18828658759593964,-0.4494708776473999,-0.016198158264160156
460706924,d4:22:cd:00:30:92,-87.23678588867188,2.4549648761749268,-173.82025146484375,-0.14007730782032013,-0.8663032650947571,-0.15726852416992188
460723591,d4:22:cd:00:30:92,-87.22064971923828,2.4530045986175537,-173.72035217285156,-0.0789995938539505,-1.1439943313598633,-0.27843570709228516
460740258,d4:22:cd:00:30:92,-87.17115783691406,2.424271821975708,-173.7208709716797,-0.18353529274463654,-1.0500239133834839,-0.20099449157714844
460756925,d4:22:cd:00:30:92,-87.10833740234375,2.3788065910339355,-173.8024444580078,-0.19532109797000885,-0.6684768199920654,-0.018856048583984375
460773592,d4:22:cd:00:30:92,-87.04876708984375,2.320319890975952,-173.92958068847656,-0.09671466797590256,-0.22409991919994354,-0.11645317077636719
460790259,d4:22:cd:00:30:92,-86.99130249023438,2.2449533939361572,-174.05992126464844,-0.040870990604162216,0.10798840969800949,-0.35512733459472656
460806926,d4:22:cd:00:30:92,-86.93157196044922,2.132862091064453,-174.16119384765625,0.05194418877363205,0.31842780113220215,-0.4489154815673828
460823593,d4:22:cd:00:30:92,-86.87116241455078,1.9948184490203857,-174.23191833496094,0.08445573598146439,0.38587087392807007,-0.24696063995361328
460840260,d4:22:cd:00:30:92,-86.82157135009766,1.8454734086990356,-174.26950073242188,0.019377119839191437,0.23056258261203766,-0.029908180236816406
460856927,d4:22:cd:00:30:92,-86.71633911132812,1.6966482400894165,-174.29974365234375,-0.003676648484542966,-0.052244558930397034,0.49555015563964844
460873594,d4:22:cd:00:30:92,-86.55256652832031,1.5738602876663208,-174.36154174804688,-0.4662257134914398,-0.5536953210830688,0.2693777084350586
460890261,d4:22:cd:00:30:92,-86.27896118164062,1.392476201057434,-174.47886657714844,0.3147459030151367,-0.06503996253013611,-0.0708608627319336
460906928,d4:22:cd:00:30:92,-85.65049743652344,1.0674821138381958,-174.61648559570312,0.370727002620697,-0.2104848325252533,-1.1465539932250977
460923595,d4:22:cd:00:30:92,-85.3338851928711,0.7237192392349243,-174.77114868164062,0.2955925464630127,0.4701557457447052,-1.7831478118896484
460940262,d4:22:cd:00:30:92,-85.11160278320312,0.2374972552061081,-174.84286499023438,-0.0231431033462286,1.2160823345184326,-2.22188138961792
460956929,d4:22:cd:00:30:92,-85.00257873535156,-0.40855786204338074,-174.78602600097656,-0.14614969491958618,1.2153124809265137,-2.2055211067199707
460973596,d4:22:cd:00:30:92,-85.0426025390625,-1.167401909828186,-174.63645935058594,0.025081897154450417,0.6685075759887695,-1.7133054733276367
460990263,d4:22:cd:00:30:92,-85.14906311035156,-2.0186574459075928,-174.46095275878906,0.18671844899654388,0.20994026958942413,-0.8280096054077148
461006930,d4:22:cd:00:30:92,-85.25255584716797,-2.9251201152801514,-174.30712890625,0.007162025664001703,-0.10963186621665955,-0.36105823516845703
461023597,d4:22:cd:00:30:92,-85.30744171142578,-3.871652126312256,-174.17379760742188,-0.33931082487106323,0.08610865473747253,-0.26131153106689453
461040264,d4:22:cd:00:30:92,-85.15928649902344,-4.8871331214904785,-174.0206756591797,-0.4099027216434479,0.5250416994094849,-0.044068336486816406
461056931,d4:22:cd:00:30:92,-84.95665740966797,-5.893675327301025,-173.8145751953125,0.008412587456405163,0.6377863883972168,0.6086292266845703
461073598,d4:22:cd:00:30:92,-84.76628875732422,-6.862546920776367,-173.52928161621094,0.4334091246128082,0.7415428161621094,0.4004678726196289
461090265,d4:22:cd:00:30:92,-84.775634765625,-7.802375316619873,-173.2136688232422,0.16944080591201782,0.07730572670698166,-0.7485637664794922
461106932,d4:22:cd:00:30:92,-84.79888153076172,-8.803425788879395,-172.8998565673828,-0.36321118474006653,0.12446891516447067,-0.9231014251708984
461123599,d4:22:cd:00:30:92,-84.72406768798828,-9.930593490600586,-172.5756072998047,-0.7946441173553467,-0.12589645385742188,-0.9311962127685547
461140266,d4:22:cd:00:30:92,-84.84232330322266,-11.052425384521484,-172.27110290527344,-0.32180750370025635,-0.49891650676727295,0.0027761459350585938
461156933,d4:22:cd:00:30:92,-85.02167510986328,-12.148834228515625,-172.0355682373047,-0.06857019662857056,-0.7026962637901306,0.2337474822998047
461173600,d4:22:cd:00:30:92,-85.11625671386719,-13.263758659362793,-171.8542022705078,-0.41321343183517456,0.32997921109199524,0.4102201461791992
461190267,d4:22:cd:00:30:92,-85.2271957397461,-14.329368591308594,-171.60482788085938,-0.5588918328285217,1.4073036909103394,1.0519399642944336
461206934,d4:22:cd:00:30:92,-85.43388366699219,-15.303312301635742,-171.20767211914062,-0.11198720335960388,2.1297335624694824,1.241816520690918
461223601,d4:22:cd:00:30:92,-85.71835327148438,-16.170387268066406,-170.62484741210938,0.06273365020751953,2.3972015380859375,1.1649398803710938
461240268,d4:22:cd:00:30:92,-85.94731903076172,-16.961687088012695,-169.83297729492188,0.01532257441431284,2.622192144393921,0.7083301544189453
461256935,d4:22:cd:00:30:92,-86.34040832519531,-17.683345794677734,-168.80062866210938,-0.3344529867172241,2.324727773666382,0.7397756576538086
461273602,d4:22:cd:00:30:92,-86.99418640136719,-18.296096801757812,-167.60304260253906,-0.813622236251831,1.4459162950515747,0.9002895355224609
461290269,d4:22:cd:00:30:92,-87.86312866210938,-18.811424255371094,-166.3149871826172,0.25447243452072144,-0.20599021017551422,0.3088235855102539
461306936,d4:22:cd:00:30:92,-88.89280700683594,-19.27761459350586,-165.12742614746094,0.5747701525688171,-1.4676883220672607,-0.4897470474243164
461323603,d4:22:cd:00:30:92,-89.73980712890625,-19.853445053100586,-164.0880889892578,-0.5654666423797607,-1.5156751871109009,-0.8338861465454102
461340270,d4:22:cd:00:30:92,-90.51217651367188,-20.595857620239258,-163.13768005371094,-0.2647361755371094,-0.6764636635780334,-1.3035039901733398
461356937,d4:22:cd:00:30:92,-91.28839111328125,-21.435483932495117,-162.22572326660156,0.20556552708148956,-0.5976389646530151,-0.9103231430053711
461373604,d4:22:cd:00:30:92,-92.11552429199219,-22.313901901245117,-161.3114471435547,-0.11558550596237183,-0.27618464827537537,0.017812728881835938
461390271,d4:22:cd:00:30:92,-92.96056365966797,-23.178373336791992,-160.41981506347656,-0.5716466307640076,-0.6058408617973328,0.49327945709228516
461406938,d4:22:cd:00:30:92,-93.99930572509766,-23.97280502319336,-159.5494384765625,-0.28310948610305786,-0.6761992573738098,0.011983871459960938
461423605,d4:22:cd:00:30:92,-95.39681243896484,-24.75752067565918,-158.70872497558594,-0.44493043422698975,-1.2000088691711426,-1.2788028717041016
461440272,d4:22:cd:00:30:92,-96.89249420166016,-25.614534378051758,-157.9784393310547,-0.3333868980407715,-1.3724753856658936,-0.6531429290771484
461456939,d4:22:cd:00:30:92,-97.7729721069336,-26.64679718017578,-157.33248901367188,0.001114603248424828,-1.9539012908935547,0.18756866455078125
461473606,d4:22:cd:00:30:92,-98.2303237915039,-27.806970596313477,-156.9510498046875,-0.6203867793083191,-2.420145034790039,0.5331850051879883
461490273,d4:22:cd:00:30:92,-98.88948059082031,-28.963001251220703,-156.84368896484375,-1.2875767946243286,-1.904658317565918,-0.951167106628418
461506940,d4:22:cd:00:30:92,-99.73039245605469,-30.231250762939453,-156.79637145996094,-0.7004297375679016,-0.5235161185264587,-1.1613397598266602
461523607,d4:22:cd:00:30:92,-100.23442077636719,-31.712814331054688,-156.53475952148438,-0.700486421585083,-0.24455513060092926,-1.5406904220581055
461540274,d4:22:cd:00:30:92,-100.57571411132812,-33.38135528564453,-156.2893524169922,0.03595183417201042,-0.0030830539762973785,-0.6157817840576172
461556941,d4:22:cd:00:30:92,-101.11602020263672,-35.047088623046875,-155.96084594726562,-0.1375073492527008,0.3108733892440796,0.36252880096435547
461573608,d4:22:cd:00:30:92,-101.93055725097656,-36.653892517089844,-155.56362915039062,-1.1920264959335327,0.3311692476272583,0.161163330078125
461590275,d4:22:cd:00:30:92,-102.88508605957031,-38.3514518737793,-155.0371551513672,-1.5676904916763306,0.4370498061180115,-1.0173330307006836
461606942,d4:22:cd:00:30:92,-103.91720581054688,-40.19451904296875,-154.3860321044922,-1.5744388103485107,0.20699216425418854,-0.6011114120483398
461623609,d4:22:cd:00:30:92,-104.98015594482422,-42.08841323852539,-153.63784790039062,-1.4375542402267456,0.131333589553833,0.6634092330932617
461640276,d4:22:cd:00:30:92,-106.21717834472656,-43.96919250488281,-152.76760864257812,-1.1434389352798462,0.24714884161949158,0.5178651809692383
461656943,d4:22:cd:00:30:92,-107.70573425292969,-45.87047576904297,-151.75474548339844,-1.2523131370544434,0.1473471224308014,0.14187240600585938
461673610,d4:22:cd:00:30:92,-109.2044677734375,-47.828346252441406,-150.60208129882812,-0.9239705801010132,0.09187030792236328,0.7117891311645508
461690277,d4:22:cd:00:30:92,-110.87701416015625,-49.80400848388672,-149.29063415527344,-1.0995832681655884,-0.10315894335508347,0.6727390289306641
461706944,d4:22:cd:00:30:92,-112.70347595214844,-51.75695037841797,-147.85914611816406,-0.9761465787887573,-0.1961212158203125,1.150930404663086
461723611,d4:22:cd:00:30:92,-114.74276733398438,-53.682395935058594,-146.24264526367188,-0.6550871729850769,-0.08884237706661224,0.805790901184082
461740278,d4:22:cd:00:30:92,-116.99867248535156,-55.655216217041016,-144.37184143066406,-0.5295462012290955,-0.05464969947934151,0.16973495483398438
461756945,d4:22:cd:00:30:92,-119.49246978759766,-57.6163330078125,-142.21487426757812,0.6100803017616272,0.06333127617835999,1.3526525497436523
461773612,d4:22:cd:00:30:92,-122.02205657958984,-59.43253707885742,-139.8657684326172,0.8121538758277893,0.015009230002760887,2.0177478790283203
461790279,d4:22:cd:00:30:92,-124.87312316894531,-61.1246337890625,-137.30429077148438,-0.5595827698707581,-0.3541211783885956,0.949798583984375
461806946,d4:22:cd:00:30:92,-128.0045623779297,-62.752220153808594,-134.54791259765625,-0.16265618801116943,-0.25482746958732605,0.9119424819946289
461823613,d4:22:cd:00:30:92,-131.47640991210938,-64.31228637695312,-131.37786865234375,0.04790910705924034,-0.034695692360401154,1.2761459350585938
461840280,d4:22:cd:00:30:92,-135.2685546875,-65.796630859375,-127.79798889160156,0.4284517467021942,-0.08699437230825424,1.0942192077636719
461856947,d4:22:cd:00:30:92,-139.37838745117188,-67.1168212890625,-123.93407440185547,0.7459704875946045,0.05152588337659836,1.315185546875
461873614,d4:22:cd:00:30:92,-143.71673583984375,-68.25061798095703,-119.8197021484375,0.8400012254714966,0.21173885464668274,1.2347688674926758
461890281,d4:22:cd:00:30:92,-148.4921875,-69.20115661621094,-115.40343475341797,0.8439475893974304,0.23876850306987762,1.0326862335205078
461906948,d4:22:cd:00:30:92,-153.4536590576172,-69.97335052490234,-110.73460388183594,1.048771858215332,0.18659956753253937,1.075932502746582
461923615,d4:22:cd:00:30:92,-158.56898498535156,-70.56599426269531,-105.88861846923828,0.5616856217384338,0.13085946440696716,0.8579883575439453
461940282,d4:22:cd:00:30:92,-163.83168029785156,-70.99549865722656,-100.87519073486328,0.5855746865272522,0.19291672110557556,0.9385490417480469
461956949,d4:22:cd:00:30:92,-169.1301727294922,-71.23429107666016,-95.80326843261719,0.9685993194580078,0.26110315322875977,0.9030590057373047
461973616,d4:22:cd:00:30:92,-174.2886199951172,-71.30467224121094,-90.8428726196289,1.1571464538574219,0.1709318608045578,0.5947914123535156
461990283,d4:22:cd:00:30:92,-179.19097900390625,-71.2186508178711,-86.11483764648438,1.3375309705734253,0.24772578477859497,0.6666898727416992
462006950,d4:22:cd:00:30:92,176.3878936767578,-70.99812316894531,-81.74024200439453,1.6766589879989624,0.28603824973106384,0.7244806289672852
462023617,d4:22:cd:00:30:92,172.46971130371094,-70.66536712646484,-77.8559799194336,1.6674953699111938,0.16456656157970428,0.37884521484375
462040284,d4:22:cd:00:30:92,168.99713134765625,-70.27373504638672,-74.49437713623047,1.885464072227478,0.12713494896888733,0.3390779495239258
462056951,d4:22:cd:00:30:92,166.13758850097656,-69.85040283203125,-71.68131256103516,2.0694897174835205,0.09182247519493103,0.2571382522583008
462073618,d4:22:cd:00:30:92,163.84043884277344,-69.4374008178711,-69.42473602294922,2.121058225631714,-0.08913841843605042,0.001483917236328125
462090285,d4:22:cd:00:30:92,161.99525451660156,-69.0592041015625,-67.63036346435547,2.225924253463745,-0.11379670351743698,0.060425758361816406
462106952,d4:22:cd:00:30:92,160.63247680664062,-68.73069763183594,-66.246826171875,2.1380743980407715,-0.2505291998386383,-0.07122802734375
462123619,d4:22:cd:00:30:92,159.57704162597656,-68.49208068847656,-65.263671875,1.8179993629455566,-0.4813724756240845,-0.14477920532226562
462140286,d4:22:cd:00:30:92,158.6559600830078,-68.35188293457031,-64.58338165283203,1.030113935470581,-0.5267069339752197,-0.07992267608642578
462156953,d4:22:cd:00:30:92,157.65472412109375,-68.28975677490234,-64.13517761230469,0.48233267664909363,-0.34395134449005127,0.2001047134399414
462173620,d4:22:cd:00:30:92,156.79388427734375,-68.27549743652344,-63.88502883911133,1.0553531646728516,0.176804780960083,-0.038107872009277344
462190287,d4:22:cd:00:30:92,156.31570434570312,-68.23348999023438,-63.71912384033203,1.3322944641113281,0.41369229555130005,-0.07097816467285156
462206954,d4:22:cd:00:30:92,156.20867919921875,-68.14972686767578,-63.5494270324707,1.7415802478790283,0.23040787875652313,0.10289859771728516
462223621,d4:22:cd:00:30:92,156.40841674804688,-68.09598541259766,-63.524932861328125,1.4985122680664062,-0.20940928161144257,-0.22373390197753906
462240288,d4:22:cd:00:30:92,156.67654418945312,-68.14797973632812,-63.759037017822266,0.6948018670082092,-0.526780903339386,-0.12337493896484375
462256955,d4:22:cd:00:30:92,156.85452270507812,-68.28520965576172,-64.23065948486328,0.3555927872657776,-0.196732297539711,0.2344379425048828
462273622,d4:22:cd:00:30:92,157.04397583007812,-68.4273452758789,-64.78013610839844,0.17531506717205048,0.2890178859233856,-0.006442070007324219
462290289,d4:22:cd:00:30:92,157.29856872558594,-68.48485565185547,-65.17684936523438,-0.2111368179321289,0.40344223380088806,0.3133125305175781
462306956,d4:22:cd:00:30:92,157.4141082763672,-68.46854400634766,-65.26412963867188,-0.9540945291519165,0.0771247074007988,0.5066432952880859
462323623,d4:22:cd:00:30:92,157.40499877929688,-68.41566467285156,-65.2073745727539,-0.5347676873207092,0.027011539787054062,-0.0024404525756835938
462340290,d4:22:cd:00:30:92,157.3300323486328,-68.3841323852539,-65.16969299316406,-0.07271569222211838,-0.2625812292098999,0.1862659454345703
462356957,d4:22:cd:00:30:92,157.20640563964844,-68.3707504272461,-65.0910873413086,0.46642327308654785,-0.16671854257583618,0.12870025634765625
462373624,d4:22:cd:00:30:92,157.1393585205078,-68.35880279541016,-64.97290802001953,0.9558560848236084,-0.17577752470970154,-0.04195880889892578
462390291,d4:22:cd:00:30:92,157.1782684326172,-68.3833236694336,-64.94630432128906,0.7550240755081177,-0.14747630059719086,0.10976123809814453
462406958,d4:22:cd:00:30:92,157.25015258789062,-68.45001220703125,-65.05655670166016,0.18928082287311554,0.005823853425681591,-0.03243541717529297
462423625,d4:22:cd:00:30:92,157.3057403564453,-68.49302673339844,-65.14224243164062,-0.15282675623893738,0.19708232581615448,0.24725818634033203
462440292,d4:22:cd:00:30:92,157.2735137939453,-68.49137115478516,-65.10279846191406,-0.25426387786865234,0.2288748025894165,0.38556671142578125
462456959,d4:22:cd:00:30:92,157.22933959960938,-68.4560775756836,-65.03215789794922,-0.0029984263237565756,0.22823332250118256,-0.034374237060546875
462473626,d4:22:cd:00:30:92,157.2238006591797,-68.42207336425781,-65.03775787353516,0.4146008789539337,0.03938208892941475,0.17039871215820312
462490293,d4:22:cd:00:30:92,157.23312377929688,-68.3983383178711,-65.07006072998047,0.5013996958732605,-0.08255048841238022,0.13594818115234375
462506960,d4:22:cd:00:30:92,157.26559448242188,-68.37979888916016,-65.0759506225586,0.548007071018219,-0.1449405550956726,-0.01885986328125
462523627,d4:22:cd:00:30:92,157.32972717285156,-68.3935775756836,-65.13245391845703,0.449767529964447,-0.2366921752691269,0.13470172882080078
462540294,d4:22:cd:00:30:92,157.38504028320312,-68.437744140625,-65.22053527832031,-0.01486204657703638,-0.13105681538581848,0.07671546936035156
462556961,d4:22:cd:00:30:92,157.38192749023438,-68.46714782714844,-65.21932983398438,-0.2120836228132248,0.03706291690468788,0.19034767150878906
462573628,d4:22:cd:00:30:92,157.31240844726562,-68.470458984375,-65.1258773803711,-0.004695560317486525,0.09507369250059128,0.2741432189941406
462590295,d4:22:cd:00:30:92,157.260498046875,-68.46412658691406,-65.05558776855469,0.2791348397731781,0.14684756100177765,-0.006939888000488281
462606962,d4:22:cd:00:30:92,157.25387573242188,-68.45823669433594,-65.0589828491211,0.4878150224685669,0.08993468433618546,0.1360301971435547
462623629,d4:22:cd:00:30:92,157.28775024414062,-68.45252227783203,-65.10347747802734,0.47292256355285645,0.0628306120634079,0.1427001953125
462640296,d4:22:cd:00:30:92,157.3446807861328,-68.4413070678711,-65.15436553955078,0.3232688009738922,0.016079746186733246,0.021101951599121094
462656963,d4:22:cd:00:30:92,157.41358947753906,-68.4410629272461,-65.2281265258789,0.1649143397808075,-0.09899836033582687,0.18589115142822266
462673630,d4:22:cd:00:30:92,157.45407104492188,-68.44915008544922,-65.28954315185547,-0.041885435581207275,-0.10050103813409805,0.14063453674316406
462690297,d4:22:cd:00:30:92,157.4400634765625,-68.44945526123047,-65.27027893066406,-0.023146554827690125,-0.05827832221984863,0.11932849884033203
462706964,d4:22:cd:00:30:92,157.3955841064453,-68.44853210449219,-65.20905303955078,0.21981559693813324,-0.059863921254873276,0.20504474639892578
462723631,d4:22:cd:00:30:92,157.3713836669922,-68.45610046386719,-65.18004608154297,0.3733133375644684,-0.00036790233571082354,0.03353595733642578
462740298,d4:22:cd:00:30:92,157.3794403076172,-68.46906280517578,-65.19205474853516,0.39689508080482483,0.04273165389895439,0.11733150482177734
462756965,d4:22:cd:00:30:92,157.40447998046875,-68.48133850097656,-65.2198715209961,0.27308791875839233,0.06492649018764496,0.1816558837890625
462773632,d4:22:cd:00:30:92,157.43353271484375,-68.48265075683594,-65.24525451660156,0.13604429364204407,0.08565060794353485,0.0568389892578125
462790299,d4:22:cd:00:30:92,157.4615020751953,-68.4795913696289,-65.27716064453125,0.08438105881214142,0.018193284049630165,0.17664813995361328
462806966,d4:22:cd:00:30:92,157.4768829345703,-68.473388671875,-65.30193328857422,0.07454425096511841,0.0006361178820952773,0.15339183807373047
462823633,d4:22:cd:00:30:92,157.4761505126953,-68.46212005615234,-65.29502868652344,0.20266678929328918,-0.022360235452651978,0.07462406158447266
462840300,d4:22:cd:00:30:92,157.47280883789062,-68.45792388916016,-65.28621673583984,0.3661571443080902,-0.08125567436218262,0.1400613784790039
462856967,d4:22:cd:00:30:92,157.4890899658203,-68.46765899658203,-65.30889129638672,0.33646300435066223,-0.046629272401332855,0.054001808166503906
462873634,d4:22:cd:00:30:92,157.52366638183594,-68.48066711425781,-65.34049224853516,0.26552513241767883,-0.005705391522496939,0.10243701934814453
462890301,d4:22:cd:00:30:92,157.53834533691406,-68.49491119384766,-65.3595199584961,0.09138662368059158,-0.007637661416083574,0.17763900756835938
462906968,d4:22:cd:00:30:92,157.54074096679688,-68.50128936767578,-65.35922241210938,0.04042164608836174,0.04338140785694122,0.08985328674316406
462923635,d4:22:cd:00:30:92,157.53695678710938,-68.50202941894531,-65.3504867553711,0.14345084130764008,0.024134257808327675,0.15147972106933594
462940302,d4:22:cd:00:30:92,157.52749633789062,-68.49957275390625,-65.33987426757812,0.25429919362068176,0.043691642582416534,0.16513824462890625
462956969,d4:22:cd:00:30:92,157.53688049316406,-68.49613189697266,-65.34615325927734,0.3330901861190796,0.022698188200592995,0.04554557800292969
462973636,d4:22:cd:00:30:92,157.56610107421875,-68.49766540527344,-65.3782730102539,0.29813656210899353,-0.01611371897161007,0.16500473022460938
462990303,d4:22:cd:00:30:92,157.59889221191406,-68.50299072265625,-65.41764831542969,0.14013345539569855,-0.03404907137155533,0.1114349365234375
463006970,d4:22:cd:00:30:92,157.6149444580078,-68.50377655029297,-65.43025207519531,0.07990923523902893,-0.0324985608458519,0.13228988647460938
463023637,d4:22:cd:00:30:92,157.60585021972656,-68.50691223144531,-65.4192123413086,0.12699872255325317,-0.019594933837652206,0.16132068634033203
463040304,d4:22:cd:00:30:92,157.59886169433594,-68.5103759765625,-65.41281127929688,0.19433513283729553,0.020405614748597145,0.09096240997314453
463056971,d4:22:cd:00:30:92,157.59671020507812,-68.51152038574219,-65.40709686279297,0.2779470682144165,0.006594973150640726,0.12259864807128906
463073638,d4:22:cd:00:30:92,157.60704040527344,-68.51270294189453,-65.41304016113281,0.2963690161705017,0.017821582034230232,0.12273979187011719
463090305,d4:22:cd:00:30:92,157.63148498535156,-68.51502227783203,-65.4363784790039,0.24453233182430267,0.02702651545405388,0.07511329650878906
463106972,d4:22:cd:00:30:92,157.66236877441406,-68.51879119873047,-65.47237396240234,0.14857085049152374,-0.004654880613088608,0.15357589721679688
463123639,d4:22:cd:00:30:92,157.67642211914062,-68.52063751220703,-65.48747253417969,0.07129236310720444,-0.025221649557352066,0.13413143157958984
463140306,d4:22:cd:00:30:92,157.6786346435547,-68.51693725585938,-65.48401641845703,0.13147300481796265,-0.009376144967973232,0.10188007354736328
463156973,d4:22:cd:00:30:92,157.67520141601562,-68.51730346679688,-65.47984313964844,0.24073708057403564,-0.028580155223608017,0.14571762084960938
463173640,d4:22:cd:00:30:92,157.68077087402344,-68.51957702636719,-65.48685455322266,0.24604283273220062,0.01123130228370428,0.089935302734375
463190307,d4:22:cd:00:30:92,157.69456481933594,-68.52489471435547,-65.49597930908203,0.25275918841362,0.005246072541922331,0.11510658264160156
463206974,d4:22:cd:00:30:92,157.71546936035156,-68.53026580810547,-65.51570129394531,0.21807757019996643,0.002850237302482128,0.12273502349853516
463223641,d4:22:cd:00:30:92,157.73951721191406,-68.5361099243164,-65.54058837890625,0.1270195096731186,0.023433322086930275,0.12413883209228516
463240308,d4:22:cd:00:30:92,157.74525451660156,-68.53750610351562,-65.5474853515625,0.10231640934944153,0.004108838737010956,0.16811561584472656
463256975,d4:22:cd:00:30:92,157.7412872314453,-68.53623962402344,-65.53981018066406,0.1559125781059265,0.021398013457655907,0.1337909698486328
463273642,d4:22:cd:00:30:92,157.74172973632812,-68.53401184082031,-65.53720092773438,0.24192215502262115,0.009750752709805965,0.09723854064941406
463290309,d4:22:cd:00:30:92,157.75628662109375,-68.53661346435547,-65.5544662475586,0.2835492193698883,-0.017747152596712112,0.1525564193725586
463306976,d4:22:cd:00:30:92,157.77774047851562,-68.54119873046875,-65.57679748535156,0.2148902714252472,-0.0018437583930790424,0.09510517120361328
463323643,d4:22:cd:00:30:92,157.79867553710938,-68.54576873779297,-65.59563446044922,0.18643751740455627,-0.010312440805137157,0.13702678680419922
463340310,d4:22:cd:00:30:92,157.80723571777344,-68.5505599975586,-65.60563659667969,0.13075172901153564,-0.01648765616118908,0.1364431381225586
463356977,d4:22:cd:00:30:92,157.81187438964844,-68.55409240722656,-65.60986328125,0.13555389642715454,0.012406310066580772,0.08786773681640625
463373644,d4:22:cd:00:30:92,157.80970764160156,-68.55448150634766,-65.60437774658203,0.18555665016174316,0.014557845890522003,0.13376331329345703
463390311,d4:22:cd:00:30:92,157.81414794921875,-68.55531311035156,-65.60587310791016,0.23704129457473755,0.01128472201526165,0.11039066314697266
463406978,d4:22:cd:00:30:92,157.8380889892578,-68.55595397949219,-65.62764739990234,0.28350695967674255,0.04185257852077484,0.09843826293945312
463423645,d4:22:cd:00:30:92,157.8565216064453,-68.55859375,-65.65684509277344,0.19562166929244995,0.012228840962052345,0.15682029724121094
463440312,d4:22:cd:00:30:92,157.8780975341797,-68.55836486816406,-65.67861938476562,0.09937945008277893,-0.0038482225500047207,0.11815643310546875
463456979,d4:22:cd:00:30:92,157.8867950439453,-68.557861328125,-65.68643951416016,0.10199544578790665,-0.025472430512309074,0.1179342269897461
463473646,d4:22:cd:00:30:92,157.8896942138672,-68.55846405029297,-65.68702697753906,0.15484978258609772,-0.030719174072146416,0.15226268768310547
463490313,d4:22:cd:00:30:92,157.89312744140625,-68.56004333496094,-65.68565368652344,0.2528975307941437,0.005529934074729681,0.09193897247314453
463506980,d4:22:cd:00:30:92,157.8977508544922,-68.5632095336914,-65.69328308105469,0.2348993718624115,0.006035743746906519,0.13662433624267578
463523647,d4:22:cd:00:30:92,157.91897583007812,-68.57122802734375,-65.71762084960938,0.17035174369812012,0.005456174723803997,0.11684799194335938
