sep=,
Measurement Mode:,Complete (Euler)
StartTime:,Fri, 03 Jun 2022 10:57:56 GMT
© Xsens Technologies B. V. 2005-2022

Timestamp,Address,Euler_x,Euler_y,Euler_z,FreeAcc_x,FreeAcc_y,FreeAcc_z
550150430,d4:22:cd:00:30:92,96.35578155517578,-1.1542391777038574,-22.79718780517578,-0.041513845324516296,-0.3997001647949219,-0.4514284133911133
550167097,d4:22:cd:00:30:92,96.32321166992188,-1.11398184299469,-22.803876876831055,0.01245939452201128,-0.7312257885932922,-0.8545703887939453
550183764,d4:22:cd:00:30:92,96.3448715209961,-1.1401714086532593,-22.76507568359375,-0.07079806178808212,-0.6305586695671082,-1.0135679244995117
550200431,d4:22:cd:00:30:92,96.40849304199219,-1.2231065034866333,-22.698026657104492,-0.1528070867061615,-0.33030790090560913,-0.7495241165161133
550217098,d4:22:cd:00:30:92,96.51918029785156,-1.3496679067611694,-22.5910587310791,-0.1428298056125641,-0.11468137055635452,-0.31210803985595703
550233765,d4:22:cd:00:30:92,96.6380844116211,-1.4920988082885742,-22.490034103393555,0.01762656681239605,0.04158279672265053,-0.2305154800415039
550250432,d4:22:cd:00:30:92,96.77649688720703,-1.655102252960205,-22.394947052001953,0.1279655247926712,0.08791971206665039,-0.08872032165527344
550267099,d4:22:cd:00:30:92,96.91175079345703,-1.8175119161605835,-22.33140754699707,0.06856505572795868,0.29402995109558105,0.05584907531738281
550283766,d4:22:cd:00:30:92,97.06880187988281,-1.9661433696746826,-22.292282104492188,-0.00044333795085549355,0.3479779362678528,0.3523855209350586
550300433,d4:22:cd:00:30:92,97.187255859375,-2.093282699584961,-22.27564811706543,-0.018790846690535545,0.2695753872394562,0.5602779388427734
550317100,d4:22:cd:00:30:92,97.2579574584961,-2.1867291927337646,-22.28326416015625,0.10215648263692856,0.18974193930625916,0.5626840591430664
550333767,d4:22:cd:00:30:92,97.2959213256836,-2.2546613216400146,-22.30341911315918,0.13618096709251404,0.10769077390432358,0.5348701477050781
550350434,d4:22:cd:00:30:92,97.31236267089844,-2.2891879081726074,-22.344079971313477,0.043086033314466476,0.08337793499231339,0.4506969451904297
550367101,d4:22:cd:00:30:92,97.31513977050781,-2.298381805419922,-22.37421417236328,-0.0878637284040451,0.0708133727312088,0.40576839447021484
550383768,d4:22:cd:00:30:92,97.29987335205078,-2.2920074462890625,-22.404247283935547,-0.10904794931411743,0.027108097448945045,0.23366641998291016
550400435,d4:22:cd:00:30:92,97.28784942626953,-2.2748725414276123,-22.430755615234375,-0.011730295605957508,-0.09826970845460892,0.09881019592285156
550417102,d4:22:cd:00:30:92,97.27674102783203,-2.257551908493042,-22.44365692138672,0.05001895874738693,-0.15195706486701965,0.0411376953125
550433769,d4:22:cd:00:30:92,97.26566314697266,-2.2410519123077393,-22.449678421020508,0.002779048401862383,-0.14664864540100098,0.0325775146484375
550450436,d4:22:cd:00:30:92,97.25475311279297,-2.229247808456421,-22.449186325073242,-0.052430104464292526,-0.07104091346263885,0.015764236450195312
550467103,d4:22:cd:00:30:92,97.24434661865234,-2.2195563316345215,-22.438220977783203,-0.020122088491916656,-0.021260105073451996,-0.008521080017089844
550483770,d4:22:cd:00:30:92,97.2419204711914,-2.214033603668213,-22.42601203918457,0.016878468915820122,-0.02388995885848999,-0.012811660766601562
550500437,d4:22:cd:00:30:92,97.22789764404297,-2.215754985809326,-22.41832733154297,0.02032693848013878,0.004149294458329678,-0.002681732177734375
550517104,d4:22:cd:00:30:92,97.21896362304688,-2.22298264503479,-22.40114402770996,0.010532153770327568,-0.0049981968477368355,-0.09003448486328125
550533771,d4:22:cd:00:30:92,97.2132797241211,-2.23919677734375,-22.38582420349121,-0.00573925394564867,-0.0008681243052706122,-0.021056175231933594
550550438,d4:22:cd:00:30:92,97.2034683227539,-2.26019024848938,-22.36473274230957,0.020348843187093735,0.016910990700125694,0.004858970642089844
550567105,d4:22:cd:00:30:92,97.19898223876953,-2.2838919162750244,-22.358469009399414,0.042623475193977356,0.006640569772571325,0.03479766845703125
550583772,d4:22:cd:00:30:92,97.19287872314453,-2.3104169368743896,-22.35538101196289,0.029482588171958923,0.040218472480773926,0.006960868835449219
550600439,d4:22:cd:00:30:92,97.1925048828125,-2.3367133140563965,-22.346818923950195,-0.016294093802571297,0.09728311747312546,0.04159355163574219
550617106,d4:22:cd:00:30:92,97.19464111328125,-2.3598973751068115,-22.343721389770508,-0.04806701838970184,0.0750914141535759,0.10189247131347656
550633773,d4:22:cd:00:30:92,97.19384002685547,-2.3783915042877197,-22.35245132446289,0.019023969769477844,0.043017301708459854,0.15498065948486328
550650440,d4:22:cd:00:30:92,97.19281768798828,-2.3888728618621826,-22.358325958251953,0.04826438054442406,0.02603076584637165,0.1336374282836914
550667107,d4:22:cd:00:30:92,97.19110870361328,-2.391392946243286,-22.375244140625,0.02663000486791134,0.01367765199393034,0.14720821380615234
550683774,d4:22:cd:00:30:92,97.18936157226562,-2.3870913982391357,-22.386398315429688,-0.0009768633171916008,0.03652290999889374,0.11957168579101562
550700441,d4:22:cd:00:30:92,97.18392944335938,-2.3780760765075684,-22.402196884155273,-0.026787245646119118,0.004791223909705877,0.12033939361572266
550717108,d4:22:cd:00:30:92,97.17906188964844,-2.3646280765533447,-22.412200927734375,-0.002177239628508687,-0.000936519296374172,0.11041259765625
550733775,d4:22:cd:00:30:92,97.16798400878906,-2.3481667041778564,-22.41838836669922,-0.01778671331703663,-0.02762530744075775,0.08911323547363281
550750442,d4:22:cd:00:30:92,97.16093444824219,-2.3282320499420166,-22.42621612548828,0.013090147636830807,-0.062471870332956314,0.03901100158691406
550767109,d4:22:cd:00:30:92,97.15623474121094,-2.30916428565979,-22.427593231201172,0.01255528163164854,-0.042973048985004425,0.07894515991210938
550783776,d4:22:cd:00:30:92,97.1507797241211,-2.287773370742798,-22.435314178466797,-0.007562560960650444,-0.06244773045182228,0.11578369140625
550800443,d4:22:cd:00:30:92,97.13733673095703,-2.2683255672454834,-22.421756744384766,-0.02410833165049553,-0.06102127209305763,-0.032192230224609375
550817110,d4:22:cd:00:30:92,97.13151550292969,-2.2553517818450928,-22.4011287689209,0.01792227476835251,-0.037924785166978836,-0.07013607025146484
550833777,d4:22:cd:00:30:92,97.13398742675781,-2.2466840744018555,-22.390247344970703,-0.0067445035092532635,-0.02084839530289173,0.010458946228027344
550850444,d4:22:cd:00:30:92,97.130615234375,-2.240450143814087,-22.371623992919922,-0.03943539783358574,-0.01707102544605732,0.057616233825683594
550867111,d4:22:cd:00:30:92,97.12909698486328,-2.234013080596924,-22.35261344909668,0.001979877706617117,-0.009700462222099304,0.014922142028808594
550883778,d4:22:cd:00:30:92,97.1279067993164,-2.233717679977417,-22.328954696655273,0.034807223826646805,0.004872135352343321,-0.004206657409667969
550900445,d4:22:cd:00:30:92,97.12989044189453,-2.2338900566101074,-22.311786651611328,0.034679822623729706,0.032630208879709244,0.01760578155517578
550917112,d4:22:cd:00:30:92,97.1303939819336,-2.2358481884002686,-22.300249099731445,-0.0035255816765129566,0.055317223072052,0.030040740966796875
550933779,d4:22:cd:00:30:92,97.13290405273438,-2.241628646850586,-22.293336868286133,-0.0355890728533268,0.06603645533323288,0.007105827331542969
550950446,d4:22:cd:00:30:92,97.13681030273438,-2.2478814125061035,-22.29500389099121,-0.010117090307176113,0.046968117356300354,0.053924560546875
550967113,d4:22:cd:00:30:92,97.13971710205078,-2.254356622695923,-22.29540252685547,0.023224560543894768,0.013868085108697414,0.06385421752929688
550983780,d4:22:cd:00:30:92,97.14019775390625,-2.2599024772644043,-22.286821365356445,0.038582805544137955,-0.02248808555305004,0.06251049041748047
551000447,d4:22:cd:00:30:92,97.14089965820312,-2.265913248062134,-22.28461456298828,0.04031011462211609,-0.024411190301179886,0.04654693603515625
551017114,d4:22:cd:00:30:92,97.14193725585938,-2.2723031044006348,-22.28365707397461,0.01791132241487503,0.004007140174508095,0.06306076049804688
551033781,d4:22:cd:00:30:92,97.14261627197266,-2.2788848876953125,-22.284114837646484,-0.03704291209578514,0.018077727407217026,0.07102012634277344
551050448,d4:22:cd:00:30:92,97.14287567138672,-2.283764362335205,-22.281843185424805,-0.045030709356069565,0.0043750423938035965,0.03046894073486328
551067115,d4:22:cd:00:30:92,97.1446762084961,-2.289531946182251,-22.2795467376709,-0.009357928298413754,-0.034112099558115005,0.027871131896972656
551083782,d4:22:cd:00:30:92,97.14777374267578,-2.298313617706299,-22.281423568725586,0.040102023631334305,-0.019254300743341446,0.05401325225830078
551100449,d4:22:cd:00:30:92,97.1514892578125,-2.30733323097229,-22.28180503845215,0.020216522738337517,-0.03763063997030258,0.05129432678222656
551117116,d4:22:cd:00:30:92,97.15644073486328,-2.31390380859375,-22.28190040588379,-0.011739011853933334,0.006451030727475882,0.07092857360839844
551133783,d4:22:cd:00:30:92,97.16046142578125,-2.3205790519714355,-22.28506088256836,-0.03509622812271118,0.06842268258333206,0.05006694793701172
551150450,d4:22:cd:00:30:92,97.16458892822266,-2.326542615890503,-22.2908878326416,0.006947900168597698,0.05446697771549225,0.08420181274414062
551167117,d4:22:cd:00:30:92,97.16686248779297,-2.329557180404663,-22.301116943359375,0.05001102387905121,0.026905596256256104,0.10256004333496094
551183784,d4:22:cd:00:30:92,97.16978454589844,-2.329186201095581,-22.313322067260742,0.031231464818120003,0.054009225219488144,0.12152957916259766
551200451,d4:22:cd:00:30:92,97.1717529296875,-2.3235902786254883,-22.331552505493164,-0.03629593178629875,0.02971738763153553,0.13306713104248047
551217118,d4:22:cd:00:30:92,97.1693115234375,-2.3133139610290527,-22.353118896484375,-0.019901035353541374,-0.012742920778691769,0.10346794128417969
551233785,d4:22:cd:00:30:92,97.16352844238281,-2.301143169403076,-22.363677978515625,0.028455769643187523,-0.07302078604698181,0.008413314819335938
551250452,d4:22:cd:00:30:92,97.16349792480469,-2.29642915725708,-22.371431350708008,0.029429728165268898,-0.10993260890245438,-0.06345272064208984
551267119,d4:22:cd:00:30:92,97.16950988769531,-2.298654079437256,-22.37380027770996,-0.0339251309633255,-0.05676111578941345,-0.036014556884765625
551283786,d4:22:cd:00:30:92,97.17550659179688,-2.3056442737579346,-22.369129180908203,-0.10660338401794434,-0.009204263798892498,0.013974189758300781
551300453,d4:22:cd:00:30:92,97.17913818359375,-2.314575672149658,-22.356597900390625,-0.04551897197961807,-0.03944377973675728,0.05242729187011719
551317120,d4:22:cd:00:30:92,97.1836166381836,-2.3263330459594727,-22.343441009521484,0.02370746061205864,-0.0708942860364914,0.016089439392089844
551333787,d4:22:cd:00:30:92,97.1908950805664,-2.3363544940948486,-22.32375717163086,0.05319932475686073,-0.04167622700333595,0.060082435607910156
551350454,d4:22:cd:00:30:92,97.19534301757812,-2.3411779403686523,-22.30156135559082,0.0074915955774486065,0.026587313041090965,0.1534414291381836
551367121,d4:22:cd:00:30:92,97.19498443603516,-2.343644857406616,-22.28955078125,-0.061571672558784485,0.09115752577781677,0.11136150360107422
551383788,d4:22:cd:00:30:92,97.1941909790039,-2.344731569290161,-22.276020050048828,-0.036141932010650635,0.09390047192573547,0.061557769775390625
551400455,d4:22:cd:00:30:92,97.19454956054688,-2.34224534034729,-22.274187088012695,0.008883187547326088,0.05427207425236702,0.10091590881347656
551417122,d4:22:cd:00:30:92,97.19442749023438,-2.3352296352386475,-22.271059036254883,0.02914676070213318,0.01639646291732788,0.1417560577392578
551433789,d4:22:cd:00:30:92,97.18980407714844,-2.323948383331299,-22.275442123413086,0.03388366848230362,0.010911902412772179,0.08522701263427734
551450456,d4:22:cd:00:30:92,97.18824768066406,-2.3139209747314453,-22.28008460998535,0.03146917000412941,0.002379518933594227,-0.008210182189941406
551467123,d4:22:cd:00:30:92,97.18861389160156,-2.3079371452331543,-22.285385131835938,-0.011956602334976196,0.009071944281458855,0.010346412658691406
551483790,d4:22:cd:00:30:92,97.18753814697266,-2.3043832778930664,-22.292739868164062,-0.04377344623208046,0.019940931349992752,0.02232646942138672
551500457,d4:22:cd:00:30:92,97.18900299072266,-2.3039772510528564,-22.302501678466797,-0.020045200362801552,0.02495701052248478,0.015455245971679688
551517124,d4:22:cd:00:30:92,97.19160461425781,-2.304302215576172,-22.30626678466797,-0.010081663727760315,0.01946931891143322,0.05164623260498047
551533791,d4:22:cd:00:30:92,97.1923599243164,-2.3052616119384766,-22.3222599029541,0.019576381891965866,-0.004795246757566929,0.0920562744140625
551550458,d4:22:cd:00:30:92,97.19024658203125,-2.302262544631958,-22.330581665039062,0.020261002704501152,-0.010573056526482105,0.11053943634033203
551567125,d4:22:cd:00:30:92,97.18533325195312,-2.2960925102233887,-22.338150024414062,0.01967204548418522,-0.005709861870855093,0.09732723236083984
551583792,d4:22:cd:00:30:92,97.17926025390625,-2.286436080932617,-22.34880256652832,0.014785158447921276,0.003475626464933157,0.04337596893310547
551600459,d4:22:cd:00:30:92,97.17461395263672,-2.2821433544158936,-22.362119674682617,-0.019756197929382324,-0.02429317682981491,-0.06011390686035156
551617126,d4:22:cd:00:30:92,97.17792510986328,-2.28694224357605,-22.365076065063477,-0.043238021433353424,-0.022466180846095085,-0.0937662124633789
551633793,d4:22:cd:00:30:92,97.18389129638672,-2.299403429031372,-22.368032455444336,-0.05172928050160408,0.010503320954740047,-0.007290840148925781
551650460,d4:22:cd:00:30:92,97.18694305419922,-2.3147990703582764,-22.367813110351562,-0.01890740729868412,0.0028260978870093822,0.05838966369628906
551667127,d4:22:cd:00:30:92,97.1911849975586,-2.3298773765563965,-22.36871910095215,-0.0018187249079346657,-0.03048761375248432,0.04041576385498047
551683794,d4:22:cd:00:30:92,97.19819641113281,-2.3470849990844727,-22.365575790405273,0.027999021112918854,-0.03539998084306717,0.04895973205566406
551700461,d4:22:cd:00:30:92,97.20606231689453,-2.3627431392669678,-22.362335205078125,0.027397993952035904,-0.023432651534676552,0.07597637176513672
551717128,d4:22:cd:00:30:92,97.2114028930664,-2.375222682952881,-22.36367416381836,0.005550832487642765,0.010997284203767776,0.12365150451660156
551733795,d4:22:cd:00:30:92,97.21198272705078,-2.383880138397217,-22.362773895263672,-0.05350296571850777,0.05607403442263603,0.12125492095947266
551750462,d4:22:cd:00:30:92,97.21408081054688,-2.387018918991089,-22.362979888916016,-0.023771384730935097,0.03983582183718681,0.09609127044677734
551767129,d4:22:cd:00:30:92,97.2139663696289,-2.3856821060180664,-22.37137222290039,-0.018596837297081947,0.03447508439421654,0.157196044921875
551783796,d4:22:cd:00:30:92,97.20965576171875,-2.376350164413452,-22.369651794433594,0.0021589116659015417,-0.0192471481859684,0.16884517669677734
551800463,d4:22:cd:00:30:92,97.2037124633789,-2.3645153045654297,-22.37261962890625,-0.01882828399538994,-0.04782506823539734,0.0903635025024414
551817130,d4:22:cd:00:30:92,97.1972427368164,-2.350931406021118,-22.36775779724121,0.0025642523542046547,-0.051447317004203796,0.03455924987792969
551833797,d4:22:cd:00:30:92,97.19356536865234,-2.3387539386749268,-22.363727569580078,-0.0013813100522384048,-0.05962654948234558,0.013140678405761719
551850464,d4:22:cd:00:30:92,97.18965911865234,-2.332686185836792,-22.346628189086914,-0.04040085896849632,-0.014583772979676723,-0.022800445556640625
551867131,d4:22:cd:00:30:92,97.19225311279297,-2.329022169113159,-22.327699661254883,-0.029100492596626282,-0.0007103241514414549,-0.03721046447753906
551883798,d4:22:cd:00:30:92,97.19568634033203,-2.333103656768799,-22.310258865356445,-0.024194607511162758,0.028060710057616234,-0.0026006698608398438
551900465,d4:22:cd:00:30:92,97.19725036621094,-2.3398633003234863,-22.297271728515625,-0.010567245073616505,-0.015969106927514076,0.01793193817138672
551917132,d4:22:cd:00:30:92,97.20084381103516,-2.352266550064087,-22.280529022216797,0.05191200226545334,-0.0166619960218668,-0.0279693603515625
551933799,d4:22:cd:00:30:92,97.2076644897461,-2.3687517642974854,-22.264667510986328,0.007547585293650627,-0.04870123788714409,-0.015126228332519531
551950466,d4:22:cd:00:30:92,97.21570587158203,-2.386352062225342,-22.24591636657715,-0.04932897537946701,-0.006714329123497009,0.08725261688232422
551967133,d4:22:cd:00:30:92,97.22150421142578,-2.4007503986358643,-22.223711013793945,-0.035713013261556625,0.027257852256298065,0.1533660888671875
551983800,d4:22:cd:00:30:92,97.22441101074219,-2.40451979637146,-22.204748153686523,0.012736103497445583,0.03422385826706886,0.1578073501586914
552000467,d4:22:cd:00:30:92,97.22675323486328,-2.402088165283203,-22.193016052246094,0.022313745692372322,0.05562879890203476,0.13640308380126953
552017134,d4:22:cd:00:30:92,97.22760009765625,-2.395418405532837,-22.18770980834961,-0.006572398357093334,0.053755760192871094,0.12563610076904297
552033801,d4:22:cd:00:30:92,97.22425842285156,-2.3843345642089844,-22.184009552001953,-0.03366094082593918,0.0704687163233757,0.1282825469970703
552050468,d4:22:cd:00:30:92,97.22039794921875,-2.3708317279815674,-22.18657112121582,0.01716490089893341,0.00926192943006754,0.06999969482421875
552067135,d4:22:cd:00:30:92,97.21743774414062,-2.356306552886963,-22.187549591064453,0.011673970147967339,-0.045690517872571945,0.03584003448486328
552083802,d4:22:cd:00:30:92,97.21434020996094,-2.3454582691192627,-22.182016372680664,-0.0024157280568033457,-0.03926809877157211,-0.009793281555175781
552100469,d4:22:cd:00:30:92,97.21550750732422,-2.3372652530670166,-22.173107147216797,-0.05608699843287468,-0.0014939606189727783,0.026047706604003906
552117136,d4:22:cd:00:30:92,97.21676635742188,-2.331775188446045,-22.164260864257812,-0.03859766945242882,0.027102287858724594,0.07157230377197266
552133803,d4:22:cd:00:30:92,97.21504974365234,-2.325796365737915,-22.161550521850586,-0.004311229567974806,-0.005373251624405384,0.05498695373535156
552150470,d4:22:cd:00:30:92,97.21487426757812,-2.3203251361846924,-22.148521423339844,0.022493338212370872,-0.01987253688275814,0.023691177368164062
552167137,d4:22:cd:00:30:92,97.21565246582031,-2.317596197128296,-22.14473533630371,0.014736320823431015,0.035033419728279114,0.026070594787597656
552183804,d4:22:cd:00:30:92,97.21622467041016,-2.3181700706481934,-22.141042709350586,-0.0034736148081719875,0.045738350600004196,0.01618671417236328
552200471,d4:22:cd:00:30:92,97.21604919433594,-2.320269823074341,-22.14469337463379,0.006864194758236408,0.056310512125492096,0.04842376708984375
552217138,d4:22:cd:00:30:92,97.2164306640625,-2.322631359100342,-22.148738861083984,0.01065128669142723,0.021891752257943153,0.039610862731933594
552233805,d4:22:cd:00:30:92,97.21662139892578,-2.326960563659668,-22.15599250793457,-0.004964334424585104,0.00390968844294548,-0.0017442703247070312
552250472,d4:22:cd:00:30:92,97.2195053100586,-2.335496425628662,-22.15894317626953,-0.012869540601968765,-0.02740224078297615,-0.0358123779296875
552267139,d4:22:cd:00:30:92,97.22392272949219,-2.349400043487549,-22.16119956970215,-0.0250430628657341,-0.02315370738506317,0.016915321350097656
552283806,d4:22:cd:00:30:92,97.22856140136719,-2.362668514251709,-22.16351890563965,-0.04282630980014801,-0.0008457730291411281,0.06774616241455078
552300473,d4:22:cd:00:30:92,97.23253631591797,-2.3770334720611572,-22.163257598876953,-0.024326590821146965,0.012280249036848545,0.05326557159423828
552317140,d4:22:cd:00:30:92,97.23639678955078,-2.3884832859039307,-22.16111946105957,-0.0005183265311643481,-0.024436671286821365,0.09711360931396484
552333807,d4:22:cd:00:30:92,97.23983001708984,-2.397061586380005,-22.154579162597656,0.014770741574466228,-0.03165166825056076,0.13186359405517578
552350474,d4:22:cd:00:30:92,97.24054718017578,-2.400465965270996,-22.15138053894043,-0.0029910504817962646,-0.014411668293178082,0.1363506317138672
552367141,d4:22:cd:00:30:92,97.24005126953125,-2.40014910697937,-22.14796257019043,-0.015804266557097435,0.02126278728246689,0.09607315063476562
552383808,d4:22:cd:00:30:92,97.23873901367188,-2.394671678543091,-22.14511489868164,-0.03634566441178322,0.029199285432696342,0.1055898666381836
552400475,d4:22:cd:00:30:92,97.2357177734375,-2.3871047496795654,-22.14533805847168,-0.04942229017615318,0.024261437356472015,0.10046768188476562
552417142,d4:22:cd:00:30:92,97.23187255859375,-2.379852771759033,-22.139114379882812,-0.006093410309404135,-0.010348649695515633,0.047821998596191406
552433809,d4:22:cd:00:30:92,97.23002624511719,-2.374126434326172,-22.136512756347656,0.015004871413111687,-0.03634678199887276,0.0037698745727539062
552450476,d4:22:cd:00:30:92,97.22809600830078,-2.3692831993103027,-22.130468368530273,0.02601970173418522,-0.020992336794734,0.05183601379394531
552467143,d4:22:cd:00:30:92,97.22373962402344,-2.3666136264801025,-22.130550384521484,-0.027876870706677437,0.000407687621191144,0.039322853088378906
552483810,d4:22:cd:00:30:92,97.22273254394531,-2.365689516067505,-22.124540328979492,-0.031022367998957634,0.018451441079378128,-0.0015096664428710938
552500477,d4:22:cd:00:30:92,97.22293853759766,-2.369211435317993,-22.119117736816406,-0.02350495755672455,-0.038226526230573654,-0.033397674560546875
552517144,d4:22:cd:00:30:92,97.22643280029297,-2.380343198776245,-22.1087589263916,0.015544991008937359,-0.03817422315478325,-0.047504425048828125
552533811,d4:22:cd:00:30:92,97.23405456542969,-2.3936240673065186,-22.104915618896484,0.01808253303170204,0.025522049516439438,0.034882545471191406
552550478,d4:22:cd:00:30:92,97.24132537841797,-2.4059839248657227,-22.10340118408203,-0.014324945397675037,0.10404215008020401,0.13446617126464844
552567145,d4:22:cd:00:30:92,97.24335479736328,-2.4116005897521973,-22.1058292388916,-0.03410260006785393,0.07844232022762299,0.15804481506347656
552583812,d4:22:cd:00:30:92,97.24148559570312,-2.413123607635498,-22.110858917236328,0.009542661719024181,0.03607454523444176,0.10071659088134766
552600479,d4:22:cd:00:30:92,97.24097442626953,-2.412897825241089,-22.11905860900879,0.03507879376411438,0.0014215423725545406,0.054099082946777344
552617146,d4:22:cd:00:30:92,97.24205017089844,-2.4123947620391846,-22.129610061645508,-0.012837913818657398,-0.0025315077509731054,0.07473278045654297
552633813,d4:22:cd:00:30:92,97.23987579345703,-2.409083127975464,-22.139978408813477,-0.03559689596295357,0.03859711065888405,0.1235208511352539
552650480,d4:22:cd:00:30:92,97.23538970947266,-2.401815414428711,-22.149667739868164,-0.04150937497615814,0.02998739294707775,0.08199119567871094
552667147,d4:22:cd:00:30:92,97.23323059082031,-2.395404577255249,-22.155908584594727,0.013131610117852688,-0.0538862906396389,0.017019271850585938
552683814,d4:22:cd:00:30:92,97.23365783691406,-2.390455722808838,-22.156625747680664,0.009262711741030216,-0.05164400860667229,0.04026317596435547
552700481,d4:22:cd:00:30:92,97.23442077636719,-2.3854551315307617,-22.15216827392578,-0.02244226448237896,-0.009775115177035332,0.05554962158203125
552717148,d4:22:cd:00:30:92,97.2345962524414,-2.3808186054229736,-22.149274826049805,-0.023514345288276672,0.003978083375841379,0.047303199768066406
552733815,d4:22:cd:00:30:92,97.23429870605469,-2.375339984893799,-22.146028518676758,0.002036761725321412,0.015932003036141396,0.06432056427001953
552750482,d4:22:cd:00:30:92,97.23519897460938,-2.371351718902588,-22.148462295532227,0.0029730575624853373,0.011974035762250423,0.07062911987304688
552767149,d4:22:cd:00:30:92,97.23336029052734,-2.3636043071746826,-22.151899337768555,-0.010346079245209694,0.04460737481713295,0.09138870239257812
552783816,d4:22:cd:00:30:92,97.23164367675781,-2.3551037311553955,-22.15549087524414,-0.010531371459364891,0.058290839195251465,0.07506179809570312
552800483,d4:22:cd:00:30:92,97.23141479492188,-2.347691535949707,-22.16607666015625,0.015179323963820934,0.006975839380174875,0.020979881286621094
552817150,d4:22:cd:00:30:92,97.23465728759766,-2.3402130603790283,-22.1792049407959,0.035578008741140366,-0.0010290537029504776,0.026276588439941406
552833817,d4:22:cd:00:30:92,97.23411560058594,-2.3350369930267334,-22.1983585357666,-0.01933957077562809,0.0534692145884037,0.051113128662109375
552850484,d4:22:cd:00:30:92,97.23311614990234,-2.331056594848633,-22.207366943359375,-0.041774459183216095,0.02434905432164669,0.02709674835205078
552867151,d4:22:cd:00:30:92,97.23353576660156,-2.332775831222534,-22.217815399169922,-0.015225814655423164,0.014516272582113743,-0.039465904235839844
552883818,d4:22:cd:00:30:92,97.23920440673828,-2.337873697280884,-22.23659896850586,0.017124220728874207,0.014266831800341606,-0.025124549865722656
552900485,d4:22:cd:00:30:92,97.24433898925781,-2.345348596572876,-22.254703521728516,0.02328401431441307,0.06496091187000275,0.0673532485961914
552917152,d4:22:cd:00:30:92,97.24476623535156,-2.349975824356079,-22.27376937866211,-0.02050921320915222,0.06033642962574959,0.1387157440185547
552933819,d4:22:cd:00:30:92,97.2425765991211,-2.3499982357025146,-22.299299240112305,-0.012021979317069054,0.04614603891968727,0.09577083587646484
552950486,d4:22:cd:00:30:92,97.2427978515625,-2.3497016429901123,-22.326871871948242,0.005021665710955858,0.004725063685327768,0.043686866760253906
552967153,d4:22:cd:00:30:92,97.24288177490234,-2.348717212677002,-22.34970474243164,-0.000398858857806772,-0.04812680929899216,0.043972015380859375
552983820,d4:22:cd:00:30:92,97.2416000366211,-2.348578691482544,-22.371784210205078,-0.021646447479724884,0.0014152840012684464,0.03659343719482422
553000487,d4:22:cd:00:30:92,97.2438735961914,-2.3481528759002686,-22.38551139831543,-0.02229284681379795,0.0006499756709672511,0.05608081817626953
553017154,d4:22:cd:00:30:92,97.2449722290039,-2.3486785888671875,-22.407203674316406,-0.023890629410743713,-0.0054783024825155735,0.07550716400146484
553033821,d4:22:cd:00:30:92,97.24457550048828,-2.3494083881378174,-22.420486450195312,-0.020561963319778442,-0.045627038925886154,0.04483318328857422
553050488,d4:22:cd:00:30:92,97.24842071533203,-2.350339889526367,-22.437650680541992,-0.015609809197485447,-0.014752749353647232,0.04476737976074219
553067155,d4:22:cd:00:30:92,97.25122833251953,-2.350053548812866,-22.444705963134766,0.010856359265744686,-0.05362388864159584,0.07401371002197266
553083822,d4:22:cd:00:30:92,97.25054168701172,-2.350952625274658,-22.44948387145996,-0.004300389438867569,-0.06259658932685852,0.038039207458496094
553100489,d4:22:cd:00:30:92,97.25344848632812,-2.355787992477417,-22.456138610839844,-0.02741118147969246,-0.01921004429459572,0.020971298217773438
553117156,d4:22:cd:00:30:92,97.25687408447266,-2.3584258556365967,-22.45783042907715,-0.02810004912316799,-0.014169827103614807,0.049510955810546875
553133823,d4:22:cd:00:30:92,97.2599105834961,-2.3638999462127686,-22.45875358581543,-0.011811877600848675,0.006885987240821123,0.01863384246826172
553150490,d4:22:cd:00:30:92,97.26496124267578,-2.3718347549438477,-22.46156883239746,-0.03455622121691704,0.043793339282274246,-0.0016326904296875
553167157,d4:22:cd:00:30:92,97.27517700195312,-2.3803789615631104,-22.4630069732666,-0.05405347794294357,0.08094208687543869,0.06471061706542969
553183824,d4:22:cd:00:30:92,97.27991485595703,-2.3870530128479004,-22.469799041748047,-0.01543725747615099,0.025589998811483383,0.11115264892578125
553200491,d4:22:cd:00:30:92,97.28136444091797,-2.388188123703003,-22.4807071685791,0.0302625373005867,0.028361111879348755,0.12255096435546875
553217158,d4:22:cd:00:30:92,97.28050231933594,-2.387047529220581,-22.48521614074707,0.02964351698756218,-0.04410223662853241,0.04118633270263672
553233825,d4:22:cd:00:30:92,97.28024291992188,-2.388998508453369,-22.487964630126953,-0.013249959796667099,-0.058475907891988754,0.025003433227539062
553250492,d4:22:cd:00:30:92,97.28337860107422,-2.393052339553833,-22.494953155517578,-0.0452214777469635,-0.02101200632750988,0.009701728820800781
553267159,d4:22:cd:00:30:92,97.28726959228516,-2.399867057800293,-22.493459701538086,-0.03787941113114357,-0.006633417680859566,0.07110404968261719
553283826,d4:22:cd:00:30:92,97.28863525390625,-2.4050045013427734,-22.492650985717773,-0.02464945614337921,0.0036133104003965855,0.096282958984375
553300493,d4:22:cd:00:30:92,97.28974151611328,-2.407059669494629,-22.4877872467041,0.006119337864220142,-0.0031953412108123302,0.058999061584472656
553317160,d4:22:cd:00:30:92,97.2916030883789,-2.407419443130493,-22.490062713623047,0.006220812443643808,-0.009200687520205975,0.08202362060546875
553333827,d4:22:cd:00:30:92,97.29235076904297,-2.406754970550537,-22.492782592773438,0.00622260058298707,0.023232830688357353,0.06930923461914062
553350494,d4:22:cd:00:30:92,97.29207611083984,-2.408810615539551,-22.495515823364258,-0.022527536377310753,0.0041796923615038395,0.019575119018554688
553367161,d4:22:cd:00:30:92,97.29646301269531,-2.4124467372894287,-22.497806549072266,-0.01208255160599947,0.01093961764127016,0.017477035522460938
553383828,d4:22:cd:00:30:92,97.30072784423828,-2.418137788772583,-22.493541717529297,-0.022562962025403976,0.001923552481457591,0.05818939208984375
553400495,d4:22:cd:00:30:92,97.30302429199219,-2.423551082611084,-22.492584228515625,-0.001696463325060904,-0.01393603254109621,0.05189990997314453
553417162,d4:22:cd:00:30:92,97.30744171142578,-2.430546522140503,-22.486940383911133,-0.020922936499118805,0.009935597889125347,0.013387680053710938
553433829,d4:22:cd:00:30:92,97.314453125,-2.4386467933654785,-22.484725952148438,-0.017033139243721962,0.032579246908426285,0.010787010192871094
553450496,d4:22:cd:00:30:92,97.32447814941406,-2.4488227367401123,-22.486495971679688,0.002605490619316697,0.0476154126226902,0.05015087127685547
553467163,d4:22:cd:00:30:92,97.33230590820312,-2.457338333129883,-22.492666244506836,0.0023198409471660852,0.03305533155798912,0.1201162338256836
553483830,d4:22:cd:00:30:92,97.33478546142578,-2.4604532718658447,-22.502002716064453,-0.027092788368463516,0.02365705743432045,0.13922500610351562
553500497,d4:22:cd:00:30:92,97.33447265625,-2.459174871444702,-22.5076961517334,-0.020853310823440552,0.012581991031765938,0.10837554931640625
553517164,d4:22:cd:00:30:92,97.33390045166016,-2.4554944038391113,-22.51235580444336,0.011715766973793507,-0.007565019652247429,0.0388641357421875
553533831,d4:22:cd:00:30:92,97.33331298828125,-2.4545106887817383,-22.520116806030273,-0.0074248770251870155,-0.022469310089945793,0.011237144470214844
553550498,d4:22:cd:00:30:92,97.33434295654297,-2.456761598587036,-22.523876190185547,-0.06676466017961502,-0.014720562845468521,0.02561664581298828
553567165,d4:22:cd:00:30:92,97.33483123779297,-2.461207151412964,-22.52070426940918,-0.07609599083662033,-0.035587284713983536,0.01779937744140625
553583832,d4:22:cd:00:30:92,97.33613586425781,-2.469356060028076,-22.513256072998047,-0.02447299286723137,-0.07792644947767258,-0.028098106384277344
553600499,d4:22:cd:00:30:92,97.34402465820312,-2.484293222427368,-22.503456115722656,0.046936601400375366,-0.05379018187522888,-0.05926322937011719
553617166,d4:22:cd:00:30:92,97.35877990722656,-2.5059704780578613,-22.495452880859375,0.02357391081750393,-0.002789441728964448,-0.0075511932373046875
553633833,d4:22:cd:00:30:92,97.37627410888672,-2.525045394897461,-22.48440933227539,-0.057550229132175446,0.06256842613220215,0.10364055633544922
553650500,d4:22:cd:00:30:92,97.38630676269531,-2.543823480606079,-22.481225967407227,-0.08716736733913422,0.10400638729333878,0.11491966247558594
553667167,d4:22:cd:00:30:92,97.39413452148438,-2.558267116546631,-22.478071212768555,-0.020171932876110077,0.06631942093372345,0.07299518585205078
553683834,d4:22:cd:00:30:92,97.3978042602539,-2.5740604400634766,-22.48059844970703,0.057960931211709976,0.00594946788623929,0.05508613586425781
553700501,d4:22:cd:00:30:92,97.40544128417969,-2.587204933166504,-22.48526382446289,0.011797796003520489,-0.024532781913876534,0.0992441177368164
553717168,d4:22:cd:00:30:92,97.4109115600586,-2.598407745361328,-22.48891830444336,-0.0384942963719368,0.01654219441115856,0.0960073471069336
553733835,d4:22:cd:00:30:92,97.41161346435547,-2.6108715534210205,-22.489368438720703,-0.050945643335580826,0.011828752234578133,0.00272369384765625
553750502,d4:22:cd:00:30:92,97.41831970214844,-2.6232573986053467,-22.48711585998535,-0.009748629294335842,0.016309740021824837,0.015328407287597656
553767169,d4:22:cd:00:30:92,97.42486572265625,-2.6344637870788574,-22.49005699157715,-0.014127583242952824,0.014221235178411007,0.16905498504638672
553783836,d4:22:cd:00:30:92,97.4262466430664,-2.6358118057250977,-22.495054244995117,-0.02932434156537056,0.06763233989477158,0.1996746063232422
553800503,d4:22:cd:00:30:92,97.42414855957031,-2.630570411682129,-22.496959686279297,-0.026331838220357895,0.030479567125439644,0.14954280853271484
553817170,d4:22:cd:00:30:92,97.4168472290039,-2.6204233169555664,-22.49953842163086,0.009587587788701057,-0.00789716001600027,0.08686637878417969
553833837,d4:22:cd:00:30:92,97.40982055664062,-2.611928939819336,-22.507112503051758,-0.004951370880007744,-0.018286041915416718,0.017763137817382812
553850504,d4:22:cd:00:30:92,97.4054946899414,-2.6072299480438232,-22.515893936157227,-0.03891729190945625,0.034684740006923676,-0.0041065216064453125
553867171,d4:22:cd:00:30:92,97.40525817871094,-2.603764295578003,-22.51750373840332,-0.06467023491859436,0.03332846239209175,0.012349128723144531
553883838,d4:22:cd:00:30:92,97.40653228759766,-2.6037662029266357,-22.524198532104492,-0.061521828174591064,-0.00715643772855401,0.03296470642089844
553900505,d4:22:cd:00:30:92,97.40696716308594,-2.604919672012329,-22.52023696899414,0.001239826320670545,-0.04431993514299393,0.03487396240234375
553917172,d4:22:cd:00:30:92,97.40779113769531,-2.6074039936065674,-22.517803192138672,0.01415675226598978,-0.06332390010356903,0.03264331817626953
553933839,d4:22:cd:00:30:92,97.4111557006836,-2.613870620727539,-22.512474060058594,0.00029559587710537016,-0.039038773626089096,-0.016290664672851562
553950506,d4:22:cd:00:30:92,97.41969299316406,-2.622048854827881,-22.504104614257812,-0.03500749170780182,0.012996830977499485,0.009099960327148438
553967173,d4:22:cd:00:30:92,97.42768096923828,-2.6327171325683594,-22.496337890625,-0.03134813904762268,0.0442148856818676,0.05568408966064453
553983840,d4:22:cd:00:30:92,97.43266296386719,-2.638951063156128,-22.492454528808594,-0.019233401864767075,0.06634624302387238,0.14229202270507812
554000507,d4:22:cd:00:30:92,97.43295288085938,-2.640747308731079,-22.492042541503906,-0.017433451488614082,0.05248352512717247,0.10586357116699219
554017174,d4:22:cd:00:30:92,97.43360900878906,-2.640235424041748,-22.498872756958008,-0.016202453523874283,0.038290899246931076,0.0939188003540039
554033841,d4:22:cd:00:30:92,97.43464660644531,-2.6374764442443848,-22.50469398498535,0.004298154264688492,0.026278864592313766,0.08304214477539062
554050508,d4:22:cd:00:30:92,97.43341827392578,-2.6333367824554443,-22.519140243530273,-0.014635628089308739,0.04550410807132721,0.10008621215820312
554067175,d4:22:cd:00:30:92,97.43142700195312,-2.624286651611328,-22.530994415283203,-0.037130195647478104,0.04849337041378021,0.08132648468017578
554083842,d4:22:cd:00:30:92,97.42826843261719,-2.6137473583221436,-22.548574447631836,-0.041466571390628815,0.012219900265336037,0.0732879638671875
554100509,d4:22:cd:00:30:92,97.4310531616211,-2.6033976078033447,-22.56728744506836,-0.028851164504885674,-0.016892215237021446,0.007170677185058594
554117176,d4:22:cd:00:30:92,97.43640899658203,-2.591677665710449,-22.576454162597656,-0.0086525222286582,-0.05459214374423027,0.06915473937988281
554133843,d4:22:cd:00:30:92,97.43629455566406,-2.5857748985290527,-22.579648971557617,-0.040128398686647415,-0.09239131212234497,-0.0691995620727539
554150510,d4:22:cd:00:30:92,97.4455337524414,-2.590247869491577,-22.57942771911621,-0.018271513283252716,-0.06350181996822357,-0.08643531799316406
554167177,d4:22:cd:00:30:92,97.45928955078125,-2.6036765575408936,-22.574451446533203,-0.016886292025446892,-0.01738126203417778,-0.07806396484375
554183844,d4:22:cd:00:30:92,97.47456359863281,-2.6215765476226807,-22.557525634765625,-0.0680256113409996,-0.0648116022348404,0.07280635833740234
554200511,d4:22:cd:00:30:92,97.49124908447266,-2.638399124145508,-22.53706932067871,-0.06524913012981415,-0.029849261045455933,0.06641769409179688
554217178,d4:22:cd:00:30:92,97.50514221191406,-2.6596429347991943,-22.5147762298584,-0.027845915406942368,-0.06963769346475601,0.029359817504882812
554233845,d4:22:cd:00:30:92,97.52555084228516,-2.6804122924804688,-22.49095344543457,0.03767076134681702,0.01286764070391655,-0.017724990844726562
554250512,d4:22:cd:00:30:92,97.55360412597656,-2.7022972106933594,-22.470123291015625,-0.008718681521713734,0.04131637141108513,0.07503318786621094
554267179,d4:22:cd:00:30:92,97.57717895507812,-2.7291126251220703,-22.453006744384766,-0.05149716138839722,0.074190653860569,0.003914833068847656
554283846,d4:22:cd:00:30:92,97.60655975341797,-2.7551615238189697,-22.442041397094727,-0.0171052236109972,0.09025721251964569,0.06622123718261719
554300513,d4:22:cd:00:30:92,97.63194274902344,-2.775442600250244,-22.44011116027832,-0.07941929250955582,0.18374329805374146,0.19300174713134766
554317180,d4:22:cd:00:30:92,97.647705078125,-2.7947311401367188,-22.441038131713867,-0.03731202334165573,0.00790699478238821,0.10366058349609375
554333847,d4:22:cd:00:30:92,97.6545639038086,-2.8053300380706787,-22.44525909423828,0.10030389577150345,-0.058802682906389236,0.1752490997314453
554350514,d4:22:cd:00:30:92,97.65476989746094,-2.8168997764587402,-22.448081970214844,-0.018952781334519386,0.0018676742911338806,-0.018538475036621094
554367181,d4:22:cd:00:30:92,97.661376953125,-2.8337173461914062,-22.447656631469727,-0.0560876689851284,-0.013550696894526482,-0.04229545593261719
554383848,d4:22:cd:00:30:92,97.673095703125,-2.856372833251953,-22.447113037109375,-0.03582208603620529,-0.03243798762559891,-0.06472110748291016
554400515,d4:22:cd:00:30:92,97.69317626953125,-2.8890273571014404,-22.440216064453125,-0.04090287163853645,-0.007754111662507057,-0.0669097900390625
554417182,d4:22:cd:00:30:92,97.72354125976562,-2.9259793758392334,-22.4361515045166,-0.05418512970209122,0.017245812341570854,-0.06296062469482422
554433849,d4:22:cd:00:30:92,97.7600326538086,-2.9729108810424805,-22.425731658935547,-0.06625918298959732,0.03139418363571167,-0.05942344665527344
554450516,d4:22:cd:00:30:92,97.80111694335938,-3.0278515815734863,-22.41630744934082,-0.007875143550336361,0.005272223614156246,-0.09947872161865234
554467183,d4:22:cd:00:30:92,97.85643005371094,-3.0887176990509033,-22.413454055786133,0.06547700613737106,-0.021453220397233963,-0.007155418395996094
554483850,d4:22:cd:00:30:92,97.8983154296875,-3.153425931930542,-22.410131454467773,-0.0008528137113898993,0.0019521621288731694,0.07602882385253906
554500517,d4:22:cd:00:30:92,97.94407653808594,-3.2147305011749268,-22.402624130249023,-0.07457174360752106,0.019373208284378052,0.07531166076660156
554517184,d4:22:cd:00:30:92,97.98216247558594,-3.281229257583618,-22.395668029785156,-0.062255844473838806,0.02297668531537056,0.017045974731445312
554533851,d4:22:cd:00:30:92,98.02035522460938,-3.3469812870025635,-22.38650131225586,-0.041689638048410416,-0.02850550040602684,0.02388763427734375
554550518,d4:22:cd:00:30:92,98.05543518066406,-3.41367244720459,-22.377540588378906,-0.017515480518341064,-0.0038462108932435513,0.1182260513305664
554567185,d4:22:cd:00:30:92,98.08274841308594,-3.471938133239746,-22.364368438720703,-0.029005946591496468,0.019657069817185402,0.18924999237060547
554583852,d4:22:cd:00:30:92,98.10800170898438,-3.518228054046631,-22.35560417175293,-0.038045257329940796,0.029491640627384186,0.18590068817138672
554600519,d4:22:cd:00:30:92,98.12451934814453,-3.5572004318237305,-22.34284782409668,-0.06352730095386505,0.0454719215631485,0.1618213653564453
554617186,d4:22:cd:00:30:92,98.1423568725586,-3.5858092308044434,-22.329608917236328,-0.03558996692299843,0.03664182126522064,0.169891357421875
554633853,d4:22:cd:00:30:92,98.15353393554688,-3.6054012775421143,-22.322969436645508,-0.04954712092876434,0.031239958480000496,0.22861766815185547
554650520,d4:22:cd:00:30:92,98.15552520751953,-3.6128687858581543,-22.316240310668945,-0.08675834536552429,0.08644229173660278,0.20723819732666016
554667187,d4:22:cd:00:30:92,98.15290069580078,-3.607652187347412,-22.311420440673828,-0.055251508951187134,0.03477414697408676,0.21255016326904297
554683854,d4:22:cd:00:30:92,98.14614868164062,-3.594860553741455,-22.302024841308594,0.002404105383902788,-0.007393361534923315,0.1481304168701172
554700521,d4:22:cd:00:30:92,98.14095306396484,-3.5766103267669678,-22.295589447021484,0.01234730239957571,-0.045365530997514725,0.06804275512695312
554717188,d4:22:cd:00:30:92,98.13887023925781,-3.5629653930664062,-22.285125732421875,-0.03048180229961872,-0.05097883567214012,-0.015947341918945312
554733855,d4:22:cd:00:30:92,98.14093017578125,-3.5523056983947754,-22.26870346069336,-0.0737299919128418,0.017987428233027458,-0.005980491638183594
554750522,d4:22:cd:00:30:92,98.1457748413086,-3.5425639152526855,-22.254507064819336,-0.0842660591006279,0.11408145725727081,0.06889629364013672
554767189,d4:22:cd:00:30:92,98.14154815673828,-3.534999132156372,-22.252544403076172,-0.0385102778673172,0.0862661674618721,0.08312225341796875
554783856,d4:22:cd:00:30:92,98.14035034179688,-3.525012254714966,-22.248882293701172,0.04097048193216324,0.03686220198869705,0.015185356140136719
554800523,d4:22:cd:00:30:92,98.1375732421875,-3.518986463546753,-22.253711700439453,0.04615766182541847,0.07609006762504578,0.020142555236816406
554817190,d4:22:cd:00:30:92,98.132568359375,-3.5165274143218994,-22.268085479736328,0.025501040741801262,0.15936875343322754,0.013364791870117188
554833857,d4:22:cd:00:30:92,98.12662506103516,-3.5159823894500732,-22.298778533935547,0.0011579088168218732,0.21665826439857483,0.01938915252685547
554850524,d4:22:cd:00:30:92,98.12136840820312,-3.520059585571289,-22.348655700683594,-0.03825357183814049,0.15426014363765717,-0.017120361328125
554867191,d4:22:cd:00:30:92,98.11883544921875,-3.53121018409729,-22.401918411254883,-0.0684657096862793,0.08067968487739563,-0.08513355255126953
554883858,d4:22:cd:00:30:92,98.1235122680664,-3.5533618927001953,-22.457304000854492,-0.05216669291257858,0.034187201410532,-0.08695220947265625
554900525,d4:22:cd:00:30:92,98.12367248535156,-3.58811092376709,-22.512083053588867,-0.0014520519180223346,0.006487240083515644,-0.07627201080322266
554917192,d4:22:cd:00:30:92,98.13221740722656,-3.628405809402466,-22.572744369506836,0.00472025852650404,0.06443207710981369,-0.041965484619140625
554933859,d4:22:cd:00:30:92,98.13101959228516,-3.682415008544922,-22.63254165649414,-0.015315555036067963,-0.007229750044643879,-0.06548690795898438
554950526,d4:22:cd:00:30:92,98.1279296875,-3.7417120933532715,-22.687307357788086,-0.09231666475534439,0.02296595647931099,0.014891624450683594
554967193,d4:22:cd:00:30:92,98.1329116821289,-3.79659366607666,-22.742185592651367,-0.11943906545639038,0.041229646652936935,0.1020364761352539
554983860,d4:22:cd:00:30:92,98.10834503173828,-3.847478151321411,-22.78651237487793,-0.27453315258026123,-0.1192253902554512,0.6758394241333008
555000527,d4:22:cd:00:30:92,98.06715393066406,-3.8169846534729004,-22.890094757080078,0.3524351119995117,0.9564499258995056,0.976954460144043
555017194,d4:22:cd:00:30:92,98.01361083984375,-3.7832841873168945,-22.969135284423828,-0.09767616540193558,-0.7122933268547058,-0.5694351196289062
555033861,d4:22:cd:00:30:92,98.02568817138672,-3.80275821685791,-23.02423858642578,0.028690792620182037,-0.5485119819641113,-0.9962196350097656
555050528,d4:22:cd:00:30:92,98.06755828857422,-3.8604800701141357,-23.056062698364258,-0.11273602396249771,0.037061575800180435,0.2944755554199219
555067195,d4:22:cd:00:30:92,98.056640625,-3.913668155670166,-23.090354919433594,-0.14901116490364075,0.22895146906375885,0.006977081298828125
555083862,d4:22:cd:00:30:92,98.08782196044922,-3.9604074954986572,-23.131013870239258,-0.07876898348331451,-0.05561717599630356,0.0016431808471679688
555100529,d4:22:cd:00:30:92,98.07364654541016,-4.019662857055664,-23.1627197265625,0.013699779286980629,0.04845805466175079,0.2175130844116211
555117196,d4:22:cd:00:30:92,98.05931854248047,-4.052465915679932,-23.202524185180664,-0.07905429601669312,0.014684800989925861,0.3226470947265625
555133863,d4:22:cd:00:30:92,98.04659271240234,-4.071835041046143,-23.241374969482422,-0.13005369901657104,0.1889064460992813,0.2229766845703125
555150530,d4:22:cd:00:30:92,98.03125,-4.08159065246582,-23.291770935058594,-0.056337110698223114,0.0967976525425911,0.11373615264892578
555167197,d4:22:cd:00:30:92,98.02967834472656,-4.0890069007873535,-23.349510192871094,0.16332371532917023,0.013395131565630436,-0.01851940155029297
555183864,d4:22:cd:00:30:92,98.02590942382812,-4.084410667419434,-23.412939071655273,-0.05022000893950462,0.029734821990132332,0.4551277160644531
555200531,d4:22:cd:00:30:92,98.00074005126953,-4.072259902954102,-23.47273063659668,-0.22837413847446442,0.09252184629440308,-0.05050373077392578
555217198,d4:22:cd:00:30:92,97.98697662353516,-4.0736565589904785,-23.523284912109375,-0.0853305384516716,-0.1970771849155426,-0.22496891021728516
555233865,d4:22:cd:00:30:92,97.98318481445312,-4.0909647941589355,-23.563404083251953,0.21682891249656677,-0.1834782063961029,-0.14108848571777344
555250532,d4:22:cd:00:30:92,97.9718246459961,-4.127211570739746,-23.591394424438477,-0.049024660140275955,-0.2697989046573639,-0.052199363708496094
555267199,d4:22:cd:00:30:92,97.97109985351562,-4.169079780578613,-23.5978946685791,-0.2233799695968628,-0.030395079404115677,-0.14456653594970703
555283866,d4:22:cd:00:30:92,97.95935821533203,-4.222056865692139,-23.60284996032715,-0.2161908894777298,0.13423562049865723,0.03249645233154297
555300533,d4:22:cd:00:30:92,97.94658660888672,-4.288614273071289,-23.6043643951416,-0.08338430523872375,-0.02816978469491005,-0.09661102294921875
555317200,d4:22:cd:00:30:92,97.96247100830078,-4.349053382873535,-23.607282638549805,0.08575163781642914,-0.09045390784740448,-0.006955146789550781
555333867,d4:22:cd:00:30:92,97.96219635009766,-4.402255058288574,-23.58771324157715,-0.08681824058294296,-0.41001036763191223,0.45703983306884766
555350534,d4:22:cd:00:30:92,97.95477294921875,-4.423003673553467,-23.527467727661133,-0.23855996131896973,-0.5719075202941895,0.3897409439086914
555367201,d4:22:cd:00:30:92,97.94303894042969,-4.435870170593262,-23.418519973754883,-0.10291720926761627,-0.32630476355552673,-0.018324851989746094
555383868,d4:22:cd:00:30:92,97.93789672851562,-4.473179340362549,-23.304973602294922,0.0685582384467125,0.09919549524784088,-0.5126161575317383
555400535,d4:22:cd:00:30:92,97.96697235107422,-4.555633544921875,-23.23213768005371,0.12289346009492874,0.5804895162582397,-0.6197023391723633
555417202,d4:22:cd:00:30:92,98.01830291748047,-4.667718410491943,-23.22503662109375,0.01857984997332096,0.8815230131149292,-0.058197021484375
555433869,d4:22:cd:00:30:92,98.06958770751953,-4.763474941253662,-23.279972076416016,-0.0837506428360939,0.6350664496421814,0.5223827362060547
555450536,d4:22:cd:00:30:92,98.0943603515625,-4.821708679199219,-23.350513458251953,-0.15697214007377625,0.08009988814592361,0.6616001129150391
555467203,d4:22:cd:00:30:92,98.1078109741211,-4.831789970397949,-23.406620025634766,-0.0712694525718689,-0.3718339204788208,0.6564598083496094
555483870,d4:22:cd:00:30:92,98.0945053100586,-4.825222969055176,-23.41724967956543,0.07523244619369507,-0.7996833324432373,0.09989643096923828
555500537,d4:22:cd:00:30:92,98.09281158447266,-4.835084915161133,-23.36359977722168,-0.06429518014192581,-0.8412531614303589,-0.4518413543701172
555517204,d4:22:cd:00:30:92,98.10416412353516,-4.8874735832214355,-23.25372886657715,-0.2894115149974823,-0.6030871272087097,-0.5832185745239258
555533871,d4:22:cd:00:30:92,98.136474609375,-5.000957012176514,-23.11260986328125,-0.1890859305858612,-0.12735722959041595,-0.7402172088623047
555550538,d4:22:cd:00:30:92,98.24696350097656,-5.146008491516113,-22.985912322998047,0.005143703427165747,0.20755860209465027,-0.5110321044921875
555567205,d4:22:cd:00:30:92,98.36798095703125,-5.305781364440918,-22.882307052612305,0.0958201140165329,0.3109928071498871,0.3099069595336914
555583872,d4:22:cd:00:30:92,98.44853973388672,-5.423609256744385,-22.797809600830078,-0.04051898792386055,0.23474135994911194,0.9694280624389648
555600539,d4:22:cd:00:30:92,98.4865951538086,-5.477788925170898,-22.716903686523438,-0.17144449055194855,0.07133550196886063,0.9161300659179688
555617206,d4:22:cd:00:30:92,98.48545837402344,-5.489920139312744,-22.628129959106445,-0.22997762262821198,0.013767951168119907,0.5855207443237305
555633873,d4:22:cd:00:30:92,98.48857879638672,-5.471607208251953,-22.5284366607666,-0.14249733090400696,-0.1397617608308792,0.17564964294433594
555650540,d4:22:cd:00:30:92,98.49071502685547,-5.462107181549072,-22.406482696533203,-0.025763221085071564,-0.3094210624694824,-0.12437057495117188
555667207,d4:22:cd:00:30:92,98.5226821899414,-5.463860034942627,-22.272830963134766,0.031208667904138565,-0.22138287127017975,-0.25957298278808594
555683874,d4:22:cd:00:30:92,98.58644104003906,-5.474822521209717,-22.14048957824707,0.0034565161913633347,0.23176728188991547,0.007542610168457031
555700541,d4:22:cd:00:30:92,98.62818908691406,-5.482466220855713,-22.03838348388672,-0.04024864733219147,0.58027184009552,0.31519317626953125
555717208,d4:22:cd:00:30:92,98.64218139648438,-5.4709367752075195,-21.98330307006836,-0.03749731555581093,0.5905846953392029,0.3871641159057617
555733875,d4:22:cd:00:30:92,98.63076782226562,-5.443896293640137,-21.95989227294922,0.030423130840063095,0.18866102397441864,0.25633716583251953
555750542,d4:22:cd:00:30:92,98.62662506103516,-5.41244649887085,-21.954065322875977,0.04719621315598488,0.19691267609596252,-0.0662832260131836
555767209,d4:22:cd:00:30:92,98.63011169433594,-5.392998695373535,-21.97211456298828,-0.07736890017986298,0.28057536482810974,-0.15732192993164062
555783876,d4:22:cd:00:30:92,98.63004302978516,-5.396371364593506,-21.99685287475586,-0.1615389585494995,0.09537073969841003,-0.19212627410888672
555800543,d4:22:cd:00:30:92,98.63725280761719,-5.418817043304443,-22.013916015625,-0.03148369863629341,-0.12183333933353424,-0.24986743927001953
555817210,d4:22:cd:00:30:92,98.64933776855469,-5.464089393615723,-22.014066696166992,0.08611227571964264,-0.22010304033756256,-0.2421855926513672
555833877,d4:22:cd:00:30:92,98.66636657714844,-5.530416965484619,-22.013214111328125,0.001385109731927514,-0.09529385715723038,-0.2620372772216797
555850544,d4:22:cd:00:30:92,98.70355224609375,-5.62261438369751,-21.992136001586914,-0.15248288214206696,-0.28326958417892456,-0.19172954559326172
555867211,d4:22:cd:00:30:92,98.75547790527344,-5.708073616027832,-21.937198638916016,-0.1962689608335495,-0.31388506293296814,0.29477882385253906
555883878,d4:22:cd:00:30:92,98.7921142578125,-5.774134159088135,-21.87740707397461,0.02249881438910961,0.36353039741516113,0.3451528549194336
555900545,d4:22:cd:00:30:92,98.7987289428711,-5.835153102874756,-21.834501266479492,-0.053954463452100754,0.02110990509390831,0.04993724822998047
555917212,d4:22:cd:00:30:92,98.81538391113281,-5.897723197937012,-21.793928146362305,-0.039253346621990204,0.0357021726667881,-0.07329463958740234
555933879,d4:22:cd:00:30:92,98.83904266357422,-5.979570388793945,-21.744140625,-0.12400085479021072,-0.5499576330184937,-0.20550251007080078
555950546,d4:22:cd:00:30:92,98.8777847290039,-6.075021743774414,-21.65521240234375,-0.11556167155504227,-0.24418075382709503,-0.0016918182373046875
555967213,d4:22:cd:00:30:92,98.8938217163086,-6.188589096069336,-21.512405395507812,-0.16593210399150848,-0.8511574268341064,-0.3661794662475586
555983880,d4:22:cd:00:30:92,98.92066955566406,-6.356013774871826,-21.265954971313477,-0.2566056251525879,-1.034720540046692,-0.5158195495605469
556000547,d4:22:cd:00:30:92,98.93893432617188,-6.618512153625488,-20.906982421875,-0.034407809376716614,-1.0311561822891235,-1.5015649795532227
556017214,d4:22:cd:00:30:92,98.96294403076172,-7.000112533569336,-20.487985610961914,-0.045759472995996475,-0.6385206580162048,-1.4022092819213867
556033881,d4:22:cd:00:30:92,99.0097427368164,-7.480162143707275,-20.092824935913086,0.35549232363700867,-0.20339053869247437,-1.4337310791015625
556050548,d4:22:cd:00:30:92,99.00479888916016,-8.092550277709961,-19.63570785522461,0.34676918387413025,-0.33048537373542786,-1.1894426345825195
556067215,d4:22:cd:00:30:92,98.94387817382812,-8.833993911743164,-19.226818084716797,0.09377285093069077,0.2582039535045624,-1.5761394500732422
556083882,d4:22:cd:00:30:92,98.90414428710938,-9.71492862701416,-18.875274658203125,0.5678212642669678,-0.023072348907589912,-2.036961078643799
556100549,d4:22:cd:00:30:92,98.81685638427734,-10.812960624694824,-18.55330467224121,0.8692242503166199,0.5795116424560547,-2.353628635406494
556117216,d4:22:cd:00:30:92,98.73733520507812,-12.066676139831543,-18.32508087158203,0.8361332416534424,0.8526011109352112,-1.5765380859375
556133883,d4:22:cd:00:30:92,98.68653106689453,-13.405776977539062,-18.176549911499023,0.60744708776474,0.7349043488502502,0.022521018981933594
556150550,d4:22:cd:00:30:92,98.49179077148438,-14.75908088684082,-18.11494255065918,0.40395429730415344,0.9509251117706299,0.5410594940185547
556167217,d4:22:cd:00:30:92,98.25528717041016,-16.136194229125977,-18.138011932373047,0.6916654109954834,0.8736339211463928,-0.6719436645507812
556183884,d4:22:cd:00:30:92,98.0009994506836,-17.681297302246094,-18.268362045288086,1.2564467191696167,0.6731148362159729,-2.5857105255126953
556200551,d4:22:cd:00:30:92,97.9086685180664,-19.45669174194336,-18.481067657470703,1.6154868602752686,0.30644139647483826,-3.092869281768799
556217218,d4:22:cd:00:30:92,97.89531707763672,-21.435523986816406,-18.769319534301758,1.590442419052124,-0.3284648060798645,-1.3650474548339844
556233885,d4:22:cd:00:30:92,97.86180114746094,-23.512327194213867,-19.081636428833008,1.3432475328445435,-0.529293417930603,-0.11653900146484375
556250552,d4:22:cd:00:30:92,97.87108612060547,-25.630041122436523,-19.393430709838867,0.8902249336242676,-0.580907940864563,0.08284950256347656
556267219,d4:22:cd:00:30:92,97.73909759521484,-27.804258346557617,-19.668052673339844,0.4646975100040436,-0.9742617011070251,0.47553062438964844
556283886,d4:22:cd:00:30:92,97.50242614746094,-30.065731048583984,-19.84107208251953,1.1017228364944458,-1.1964402198791504,-0.9310007095336914
556300553,d4:22:cd:00:30:92,97.44252014160156,-32.445884704589844,-19.9434871673584,1.619765043258667,-1.272291660308838,-0.7819013595581055
556317220,d4:22:cd:00:30:92,97.33493041992188,-34.899166107177734,-20.04523468017578,1.6061173677444458,-1.3049651384353638,1.0350379943847656
556333887,d4:22:cd:00:30:92,97.10786437988281,-37.37015914916992,-20.067195892333984,0.9980298280715942,-1.1321157217025757,0.596339225769043
556350554,d4:22:cd:00:30:92,96.94388580322266,-39.86217498779297,-20.0169620513916,0.29544970393180847,-0.8887961506843567,0.6278514862060547
556367221,d4:22:cd:00:30:92,96.67662048339844,-42.37303924560547,-19.86908531188965,0.17902851104736328,-0.6863774657249451,1.6929874420166016
556383888,d4:22:cd:00:30:92,96.36658477783203,-44.78962707519531,-19.629230499267578,0.3310716450214386,-0.27078014612197876,1.4593801498413086
556400555,d4:22:cd:00:30:92,95.86646270751953,-47.21449279785156,-19.418153762817383,1.0651668310165405,-0.4011033773422241,1.2987747192382812
556417222,d4:22:cd:00:30:92,95.48992156982422,-49.64643478393555,-19.18642807006836,0.7354199886322021,0.009631173685193062,0.4870872497558594
556433889,d4:22:cd:00:30:92,95.33352661132812,-51.966064453125,-19.011014938354492,-0.35303089022636414,0.578846275806427,1.9110612869262695
556450556,d4:22:cd:00:30:92,94.96984100341797,-54.24095916748047,-18.871044158935547,-0.2149483859539032,0.6111255288124084,2.3943958282470703
556467223,d4:22:cd:00:30:92,94.27485656738281,-56.554725646972656,-18.649578094482422,0.9446178078651428,0.07070251554250717,-0.9611377716064453
556483890,d4:22:cd:00:30:92,94.09632873535156,-58.88554000854492,-18.61200714111328,1.8290387392044067,0.052660323679447174,0.8695964813232422
556500557,d4:22:cd:00:30:92,94.03731536865234,-61.29651641845703,-18.739913940429688,1.359035849571228,0.1543160229921341,1.9284772872924805
556517224,d4:22:cd:00:30:92,94.12075805664062,-63.6409912109375,-19.0744571685791,-0.23105517029762268,0.3167833387851715,0.22744178771972656
556533891,d4:22:cd:00:30:92,94.20904541015625,-65.98758697509766,-19.33684539794922,-0.31943511962890625,0.13016903400421143,1.6921825408935547
556550558,d4:22:cd:00:30:92,94.0455093383789,-68.29682159423828,-19.575801849365234,-1.2410988807678223,0.4591881334781647,2.0392932891845703
556567225,d4:22:cd:00:30:92,94.16134643554688,-70.4602279663086,-19.993040084838867,-0.1747739464044571,0.059992216527462006,1.0525283813476562
556583892,d4:22:cd:00:30:92,93.99630737304688,-72.6229476928711,-20.156631469726562,-0.21507824957370758,-0.3005449175834656,1.1013221740722656
556600559,d4:22:cd:00:30:92,93.88867950439453,-74.81999969482422,-20.432729721069336,0.028500137850642204,-0.22838039696216583,1.178269386291504
556617226,d4:22:cd:00:30:92,93.83143615722656,-76.93419647216797,-20.548826217651367,-0.31098899245262146,-0.2426619827747345,1.2101688385009766
556633893,d4:22:cd:00:30:92,93.75298309326172,-78.9750747680664,-20.64472198486328,-0.4241180717945099,-0.2608438730239868,1.357126235961914
556650560,d4:22:cd:00:30:92,93.03958892822266,-81.06927490234375,-20.198627471923828,-0.366384893655777,-0.5089213252067566,0.9658842086791992
556667227,d4:22:cd:00:30:92,92.07135772705078,-83.12733459472656,-19.355506896972656,-0.83589106798172,0.12005797028541565,1.0731525421142578
556683894,d4:22:cd:00:30:92,90.1719741821289,-84.98585510253906,-17.53150177001953,-1.4264339208602905,0.36208540201187134,1.553213119506836
556700561,d4:22:cd:00:30:92,85.48420715332031,-86.8182601928711,-13.083488464355469,-0.6007433533668518,0.045806970447301865,0.7260408401489258
556717228,d4:22:cd:00:30:92,67.30844116210938,-88.62855529785156,4.879225730895996,-0.26177501678466797,0.34866276383399963,0.5283088684082031
556733895,d4:22:cd:00:30:92,-34.23466873168945,-89.11044311523438,106.29589080810547,-0.9682379961013794,0.9839726686477661,1.1993656158447266
556750562,d4:22:cd:00:30:92,-67.15382385253906,-87.7049331665039,139.11639404296875,-0.7617091536521912,0.6833604574203491,0.4899578094482422
556767229,d4:22:cd:00:30:92,-74.7200698852539,-86.095458984375,146.52969360351562,-0.6562288999557495,0.6215676069259644,0.32449913024902344
556783896,d4:22:cd:00:30:92,-78.34998321533203,-84.50763702392578,149.9672088623047,-1.2264049053192139,1.1006314754486084,0.8650541305541992
556800563,d4:22:cd:00:30:92,-80.36949920654297,-83.14390563964844,151.94766235351562,-1.7636823654174805,0.9467878937721252,0.16934871673583984
556817230,d4:22:cd:00:30:92,-81.42146301269531,-81.93505859375,153.01303100585938,-1.823470115661621,0.5409905314445496,0.0644989013671875
556833897,d4:22:cd:00:30:92,-82.03343963623047,-80.76294708251953,153.426513671875,-2.140843629837036,0.5881122350692749,0.8024921417236328
556850564,d4:22:cd:00:30:92,-82.25601959228516,-79.72502136230469,153.4251251220703,-1.873267412185669,0.5156048536300659,-0.12979793548583984
556867231,d4:22:cd:00:30:92,-82.220947265625,-78.84700012207031,153.16741943359375,-1.4779441356658936,0.7457907795906067,-0.23108291625976562
556883898,d4:22:cd:00:30:92,-82.19487762451172,-78.1024398803711,153.00682067871094,-1.3389803171157837,1.0156158208847046,0.34537792205810547
556900565,d4:22:cd:00:30:92,-82.34725189208984,-77.44290924072266,153.0223846435547,-1.236559510231018,1.0404350757598877,-0.30425548553466797
556917232,d4:22:cd:00:30:92,-82.58354187011719,-76.90937042236328,153.12815856933594,-1.452818751335144,1.071099042892456,-0.4016084671020508
556933899,d4:22:cd:00:30:92,-82.79704284667969,-76.56293487548828,153.30812072753906,-1.4184775352478027,1.1581099033355713,-0.05258750915527344
556950566,d4:22:cd:00:30:92,-83.08255004882812,-76.32862091064453,153.55398559570312,-1.4054858684539795,0.8581354022026062,-0.38816261291503906
556967233,d4:22:cd:00:30:92,-83.3702163696289,-76.18038177490234,153.79844665527344,-1.580069661140442,0.8712164163589478,-0.10167121887207031
556983900,d4:22:cd:00:30:92,-83.5259017944336,-76.19805908203125,153.9532470703125,-1.7164937257766724,0.739397406578064,-0.19384288787841797
557000567,d4:22:cd:00:30:92,-83.63423156738281,-76.32637023925781,153.95407104492188,-1.4623730182647705,0.44004347920417786,-0.3423118591308594
557017234,d4:22:cd:00:30:92,-83.72209930419922,-76.49353790283203,153.82508850097656,-1.3490294218063354,0.44954758882522583,0.25498199462890625
557033901,d4:22:cd:00:30:92,-83.84983825683594,-76.70096588134766,153.61717224121094,-0.9666070342063904,0.38259294629096985,0.03870105743408203
557050568,d4:22:cd:00:30:92,-83.9198226928711,-76.93602752685547,153.32481384277344,-0.11962323635816574,-0.05065619572997093,-0.0524139404296875
557067235,d4:22:cd:00:30:92,-83.87164306640625,-77.14018249511719,153.00198364257812,0.7949180006980896,-0.2410733699798584,0.6692495346069336
557083902,d4:22:cd:00:30:92,-83.71526336669922,-77.26187896728516,152.7169952392578,1.3787308931350708,-0.5795648694038391,0.47167396545410156
557100569,d4:22:cd:00:30:92,-83.48057556152344,-77.26883697509766,152.45167541503906,1.502332091331482,-0.5713208913803101,0.27368927001953125
557117236,d4:22:cd:00:30:92,-83.24602508544922,-77.20464324951172,152.2754669189453,0.9279026389122009,-0.07992912828922272,0.49935054779052734
557133903,d4:22:cd:00:30:92,-83.14745330810547,-77.10445404052734,152.27392578125,0.24424557387828827,0.31061169505119324,0.03629589080810547
557150570,d4:22:cd:00:30:92,-83.25396728515625,-76.98629760742188,152.45362854003906,-0.529792308807373,0.7258991003036499,-0.09678077697753906
557167237,d4:22:cd:00:30:92,-83.5570297241211,-76.93517303466797,152.79830932617188,-1.1097328662872314,0.9589513540267944,-0.010590553283691406
557183904,d4:22:cd:00:30:92,-83.96818542480469,-76.97138214111328,153.2047576904297,-1.009362816810608,0.577544093132019,-0.2890138626098633
557200571,d4:22:cd:00:30:92,-84.35076904296875,-77.02117156982422,153.54397583007812,-0.5083708167076111,0.05498485639691353,0.25275230407714844
557217238,d4:22:cd:00:30:92,-84.55410766601562,-77.06161499023438,153.70323181152344,-0.2025022953748703,-0.3306176960468292,0.47361183166503906
557233905,d4:22:cd:00:30:92,-84.49853515625,-77.09220123291016,153.62332153320312,0.15781289339065552,-0.5707269310951233,0.12042427062988281
557250572,d4:22:cd:00:30:92,-84.21256256103516,-77.08312225341797,153.34642028808594,0.2399071902036667,-0.3523614704608917,0.46584320068359375
557267239,d4:22:cd:00:30:92,-83.8558578491211,-77.04655456542969,153.0184326171875,-0.08087793737649918,0.11740710586309433,0.3110208511352539
557283906,d4:22:cd:00:30:92,-83.54669952392578,-77.02238464355469,152.7296600341797,-0.4715515375137329,0.4694412350654602,-0.25217723846435547
557300573,d4:22:cd:00:30:92,-83.3880844116211,-77.03184509277344,152.56239318847656,-0.521253228187561,0.71617192029953,0.10296440124511719
557317240,d4:22:cd:00:30:92,-83.43768310546875,-77.05416107177734,152.58920288085938,-0.11264695227146149,0.5211543440818787,0.11394023895263672
557333907,d4:22:cd:00:30:92,-83.64881896972656,-77.07009887695312,152.7792510986328,0.1181216761469841,0.2956555485725403,-0.08949470520019531
557350574,d4:22:cd:00:30:92,-83.93170928955078,-77.09417724609375,153.0594940185547,0.2023138701915741,0.13309772312641144,0.2835206985473633
557367241,d4:22:cd:00:30:92,-84.20342254638672,-77.09149932861328,153.3540496826172,0.2309514731168747,-0.13878478109836578,0.28143310546875
557383908,d4:22:cd:00:30:92,-84.36625671386719,-77.06240844726562,153.54922485351562,-0.34392744302749634,-0.06773169338703156,0.1313486099243164
557400575,d4:22:cd:00:30:92,-84.37712860107422,-77.06137084960938,153.573974609375,-0.7440893650054932,0.047798022627830505,0.2270650863647461
557417242,d4:22:cd:00:30:92,-84.2537841796875,-77.07032775878906,153.4410400390625,-0.5272276997566223,-0.0012142341583967209,0.15351581573486328
557433909,d4:22:cd:00:30:92,-84.04512023925781,-77.07577514648438,153.2077178955078,-0.38080906867980957,0.12025365978479385,0.1591329574584961
557450576,d4:22:cd:00:30:92,-83.81465148925781,-77.0990982055664,152.95071411132812,-0.0528695322573185,0.16914913058280945,0.15843677520751953
557467243,d4:22:cd:00:30:92,-83.6302261352539,-77.10538482666016,152.7559051513672,0.33219635486602783,0.1101997122168541,0.1308917999267578
557483910,d4:22:cd:00:30:92,-83.55667877197266,-77.09042358398438,152.69448852539062,0.13884736597537994,0.30765998363494873,0.17223644256591797
557500577,d4:22:cd:00:30:92,-83.61788940429688,-77.08738708496094,152.77301025390625,-0.11913888901472092,0.4182190001010895,0.02577686309814453
557517244,d4:22:cd:00:30:92,-83.80355072021484,-77.08909606933594,152.9688720703125,-0.2115889936685562,0.36459848284721375,0.02756786346435547
557533911,d4:22:cd:00:30:92,-84.05093383789062,-77.09435272216797,153.21690368652344,-0.36112138628959656,0.3066251277923584,0.18085765838623047
557550578,d4:22:cd:00:30:92,-84.27732849121094,-77.11210632324219,153.43458557128906,-0.2782309353351593,0.0412256233394146,0.10966682434082031
557567245,d4:22:cd:00:30:92,-84.3775405883789,-77.12409973144531,153.5259552001953,-0.11804255843162537,-0.18837113678455353,0.23316478729248047
