sep=,
Measurement Mode:,Extended (Quaternion)
StartTime:,Tue, 24 May 2022 13:10:54 GMT
© Xsens Technologies B. V. 2005-2022

Timestamp,Address,Quaternion_w,Quaternion_x,Quaternion_y,Quaternion_z,FreeAcc_x,FreeAcc_y,FreeAcc_z,Status,ClipCountAcc,ClipCountGyr
439171735,d4:22:cd:00:30:92,0.5430313944816589,0.4373769760131836,0.42995211482048035,-0.5735499858856201,0.350269615650177,-0.04762949422001839,-0.02285480499267578,0,0,0
439188402,d4:22:cd:00:30:92,0.5430720448493958,0.4373334050178528,0.42995485663414,-0.5735426545143127,0.3205133378505707,-0.05047190934419632,-0.04938697814941406,0,0,0
439205069,d4:22:cd:00:30:92,0.5431265830993652,0.43723931908607483,0.4299960732460022,-0.5735318660736084,0.33328330516815186,-0.08060100674629211,-0.044869422912597656,0,0,0
439221736,d4:22:cd:00:30:92,0.543176531791687,0.43711069226264954,0.43008944392204285,-0.5735127329826355,0.32018500566482544,-0.08208446204662323,-0.07078742980957031,0,0,0
439238403,d4:22:cd:00:30:92,0.5431085228919983,0.4370758831501007,0.4301234483718872,-0.5735780000686646,0.3001631498336792,-0.035153672099113464,-0.04149150848388672,0,0,0
439255070,d4:22:cd:00:30:92,0.5431130528450012,0.4370313286781311,0.4301861822605133,-0.5735606551170349,0.3312285542488098,-0.028194818645715714,-0.02136516571044922,0,0,0
439271737,d4:22:cd:00:30:92,0.5431326627731323,0.4369713366031647,0.43026822805404663,-0.5735262036323547,0.32104483246803284,-0.010058976709842682,-0.051804542541503906,0,0,0
439288404,d4:22:cd:00:30:92,0.5430831909179688,0.43698081374168396,0.4302828907966614,-0.5735548734664917,0.3067266047000885,-0.06920162588357925,-0.06428337097167969,0,0,0
439305071,d4:22:cd:00:30:92,0.5431165099143982,0.4369395673274994,0.43029433488845825,-0.5735461711883545,0.29241082072257996,-0.09080079942941666,-0.10617256164550781,0,0,0
439321738,d4:22:cd:00:30:92,0.5431613326072693,0.4368774890899658,0.4302879571914673,-0.5735557675361633,0.3240741193294525,-0.07982742786407471,-0.0985260009765625,0,0,0
439338405,d4:22:cd:00:30:92,0.543199896812439,0.4368034899234772,0.4303255081176758,-0.5735475420951843,0.3172413110733032,-0.07356303185224533,-0.10312652587890625,0,0,0
439355072,d4:22:cd:00:30:92,0.543157160282135,0.4367434084415436,0.43034881353378296,-0.573616087436676,0.30403149127960205,-0.0586712583899498,-0.07990360260009766,0,0,0
439371739,d4:22:cd:00:30:92,0.5431214570999146,0.4366648495197296,0.4304250478744507,-0.5736525654792786,0.3399672210216522,-0.049470122903585434,-0.047263145446777344,0,0,0
439388406,d4:22:cd:00:30:92,0.5430834889411926,0.4365769922733307,0.4304986298084259,-0.5737003087997437,0.3518431484699249,-0.05358969047665596,-0.062145233154296875,0,0,0
439405073,d4:22:cd:00:30:92,0.543049156665802,0.4365156590938568,0.43057259917259216,-0.5737239122390747,0.339030921459198,0.014833884313702583,-0.09034347534179688,0,0,0
439421740,d4:22:cd:00:30:92,0.5429608225822449,0.43652287125587463,0.4305957853794098,-0.5737846493721008,0.3775109350681305,-0.02808954380452633,-0.044025421142578125,0,0,0
439438407,d4:22:cd:00:30:92,0.5429221987724304,0.43647173047065735,0.4305805563926697,-0.573871374130249,0.3630552291870117,-0.07745282351970673,-0.04341316223144531,0,0,0
439455074,d4:22:cd:00:30:92,0.5429145693778992,0.4364550709724426,0.4305099546909332,-0.5739443302154541,0.37858355045318604,-0.05508968606591225,-0.058876991271972656,0,0,0
439471741,d4:22:cd:00:30:92,0.5430306196212769,0.4364144206047058,0.4304494559764862,-0.5739107728004456,0.38469061255455017,-0.02825695462524891,-0.04068470001220703,0,0,0
439488408,d4:22:cd:00:30:92,0.5430706143379211,0.43645021319389343,0.4303301274776459,-0.5739352703094482,0.3676023781299591,-0.006772889755666256,-0.056888580322265625,0,0,0
439505075,d4:22:cd:00:30:92,0.5430150032043457,0.4365577697753906,0.4301391839981079,-0.5740492343902588,0.3698008358478546,-0.012042654678225517,-0.05436134338378906,0,0,0
439521742,d4:22:cd:00:30:92,0.5429815053939819,0.4366031587123871,0.42998066544532776,-0.5741649866104126,0.3936563730239868,-0.06227719038724899,-0.05191326141357422,0,0,0
439538409,d4:22:cd:00:30:92,0.5429080128669739,0.4366456866264343,0.42985689640045166,-0.5742948055267334,0.3760026693344116,-0.08008558303117752,-0.08966732025146484,0,0,0
439555076,d4:22:cd:00:30:92,0.5428476929664612,0.43670323491096497,0.429727703332901,-0.5744048357009888,0.3712869882583618,-0.06301545351743698,-0.06377792358398438,0,0,0
439571743,d4:22:cd:00:30:92,0.542818009853363,0.4367847442626953,0.42957642674446106,-0.5744840502738953,0.376088947057724,-0.006656663026660681,-0.07222652435302734,0,0,0
439588410,d4:22:cd:00:30:92,0.5428339242935181,0.43688488006591797,0.42939916253089905,-0.5745252966880798,0.37464794516563416,0.02342505194246769,-0.026365280151367188,0,0,0
439605077,d4:22:cd:00:30:92,0.5428956747055054,0.4369717836380005,0.42924225330352783,-0.5745182037353516,0.3756101727485657,0.008465330116450787,-0.01640033721923828,0,0,0
439621744,d4:22:cd:00:30:92,0.5429406762123108,0.437053382396698,0.4290725290775299,-0.5745404362678528,0.3520328998565674,-0.055651597678661346,0.001697540283203125,0,0,0
439638411,d4:22:cd:00:30:92,0.5429093241691589,0.43719029426574707,0.4288821518421173,-0.5746080875396729,0.3363867700099945,-0.06481808423995972,-0.03789710998535156,0,0,0
439655078,d4:22:cd:00:30:92,0.5428441166877747,0.43732544779777527,0.4287184178829193,-0.5746889710426331,0.33340153098106384,-0.02666420117020607,-0.046607017517089844,0,0,0
439671745,d4:22:cd:00:30:92,0.5427982807159424,0.43741661310195923,0.4286491572856903,-0.5747146010398865,0.3760256767272949,-0.024800103157758713,-0.07814502716064453,0,0,0
439688412,d4:22:cd:00:30:92,0.5427693724632263,0.4374661147594452,0.4286668300628662,-0.5746910572052002,0.2913144826889038,-0.01769552007317543,-0.09298419952392578,0,0,0
439705079,d4:22:cd:00:30:92,0.542603075504303,0.43763384222984314,0.4285772144794464,-0.5747872591018677,0.29183170199394226,-0.025509757921099663,-0.04662036895751953,0,0,0
439721746,d4:22:cd:00:30:92,0.5425229072570801,0.4377474784851074,0.4285244643688202,-0.574815571308136,0.3626059591770172,-0.03741227090358734,-0.013658523559570312,0,0,0
439738413,d4:22:cd:00:30:92,0.5424984693527222,0.43780606985092163,0.4284839630126953,-0.5748242139816284,0.34179356694221497,-0.06079261749982834,-0.0009174346923828125,0,0,0
439755080,d4:22:cd:00:30:92,0.542447566986084,0.4379122853279114,0.4283980131149292,-0.5748554468154907,0.3062026798725128,-0.0025366484187543392,-0.036350250244140625,0,0,0
439771747,d4:22:cd:00:30:92,0.5423427820205688,0.4380638897418976,0.4282703101634979,-0.5749340653419495,0.2959986627101898,-0.021210262551903725,-0.050721168518066406,0,0,0
439788414,d4:22:cd:00:30:92,0.5421813130378723,0.4382137358188629,0.4281613528728485,-0.5750532746315002,0.328030526638031,-0.04549203813076019,-0.051154136657714844,0,0,0
439805081,d4:22:cd:00:30:92,0.5419862866401672,0.43834084272384644,0.42814794182777405,-0.5751501321792603,0.3174777925014496,-0.04147685319185257,-0.028206825256347656,0,0,0
439821748,d4:22:cd:00:30:92,0.541836142539978,0.43844249844551086,0.42815613746643066,-0.5752080678939819,0.3595143258571625,-0.07431358844041824,0.022687911987304688,0,0,0
439838415,d4:22:cd:00:30:92,0.5417816042900085,0.43846356868743896,0.42822906374931335,-0.5751890540122986,0.3125889003276825,-0.05960330739617348,-0.04122161865234375,0,0,0
439855082,d4:22:cd:00:30:92,0.5416954755783081,0.4385768473148346,0.428222119808197,-0.5751889944076538,0.306531697511673,-0.06858561933040619,-0.04877281188964844,0,0,0
439871749,d4:22:cd:00:30:92,0.5416830778121948,0.43866464495658875,0.4281631410121918,-0.5751777291297913,0.28863993287086487,-0.07208650559186935,-0.08865165710449219,0,0,0
439888416,d4:22:cd:00:30:92,0.541580319404602,0.4388108253479004,0.428056925535202,-0.5752418637275696,0.3357544541358948,-0.07633570581674576,-0.06859874725341797,0,0,0
439905083,d4:22:cd:00:30:92,0.541523277759552,0.43885570764541626,0.4280174672603607,-0.5752907991409302,0.36150628328323364,-0.12458477914333344,-0.02258014678955078,0,0,0
439921750,d4:22:cd:00:30:92,0.5415415167808533,0.4388062059879303,0.4280392527580261,-0.5752949118614197,0.34497660398483276,-0.12897971272468567,-0.0028409957885742188,0,0,0
439938417,d4:22:cd:00:30:92,0.5415626168251038,0.4387800395488739,0.42799466848373413,-0.5753282904624939,0.3276619613170624,-0.08035469800233841,-0.0050334930419921875,0,0,0
439955084,d4:22:cd:00:30:92,0.5416225790977478,0.4388065040111542,0.4278497099876404,-0.575359582901001,0.348795086145401,-0.06572823226451874,-0.019327163696289062,0,0,0
439971751,d4:22:cd:00:30:92,0.5417120456695557,0.4388909935951233,0.42760178446769714,-0.5753950476646423,0.36053332686424255,-0.057273853570222855,-0.05574321746826172,0,0,0
439988418,d4:22:cd:00:30:92,0.5417332649230957,0.4390003979206085,0.42737025022506714,-0.5754636526107788,0.3624644875526428,-0.0738314688205719,-0.047690391540527344,0,0,0
440005085,d4:22:cd:00:30:92,0.5417271852493286,0.43901968002319336,0.42730286717414856,-0.5755047798156738,0.3774530291557312,-0.11499451100826263,-0.038939476013183594,0,0,0
440021752,d4:22:cd:00:30:92,0.5416908264160156,0.4389917254447937,0.4272468388080597,-0.5756019353866577,0.31860899925231934,-0.13112454116344452,-0.013788223266601562,0,0,0
440038419,d4:22:cd:00:30:92,0.541671872138977,0.4389999806880951,0.4271185100078583,-0.57570880651474,0.33368539810180664,-0.09470802545547485,-0.06720161437988281,0,0,0
440055086,d4:22:cd:00:30:92,0.5417505502700806,0.4390156865119934,0.42700767517089844,-0.57570481300354,0.3885214030742645,-0.039381418377161026,-0.051441192626953125,0,0,0
440071753,d4:22:cd:00:30:92,0.5419135093688965,0.43901196122169495,0.4268551468849182,-0.5756674408912659,0.35374435782432556,-0.008619776926934719,-0.06625175476074219,0,0,0
440088420,d4:22:cd:00:30:92,0.5420507192611694,0.4390091896057129,0.4267122149467468,-0.5756463408470154,0.3667945861816406,-0.08742150664329529,-0.026010513305664062,0,0,0
440105087,d4:22:cd:00:30:92,0.5421196818351746,0.4390130341053009,0.42655831575393677,-0.5756924748420715,0.2902344763278961,-0.07295306771993637,-0.042754173278808594,0,0,0
440121754,d4:22:cd:00:30:92,0.5421605110168457,0.43905267119407654,0.4264090061187744,-0.5757343769073486,0.3470172882080078,-0.09434816986322403,-0.03145313262939453,0,0,0
440138421,d4:22:cd:00:30:92,0.5422128438949585,0.4390641152858734,0.4262636601924896,-0.5757840275764465,0.4127390384674072,-0.09763716161251068,-0.03729057312011719,0,0,0
440155088,d4:22:cd:00:30:92,0.5423438549041748,0.4390239119529724,0.4262586832046509,-0.5756949782371521,0.33987000584602356,0.008190631866455078,-0.10158061981201172,0,0,0
440171755,d4:22:cd:00:30:92,0.5424578785896301,0.4390212595462799,0.42616933584213257,-0.5756558179855347,0.3516048789024353,-0.06855142116546631,-0.009492874145507812,0,0,0
440188422,d4:22:cd:00:30:92,0.5426804423332214,0.4389570355415344,0.42606857419013977,-0.5755696296691895,0.35236191749572754,-0.05800652876496315,-0.03602790832519531,0,0,0
440205089,d4:22:cd:00:30:92,0.5428053140640259,0.4389860928058624,0.4259757101535797,-0.5754983425140381,0.31888681650161743,-0.013493030332028866,-0.04331684112548828,0,0,0
440221756,d4:22:cd:00:30:92,0.542914092540741,0.43897899985313416,0.4258824288845062,-0.5754702091217041,0.34025222063064575,-0.06728477776050568,-0.02016735076904297,0,0,0
440238423,d4:22:cd:00:30:92,0.5430522561073303,0.43892887234687805,0.42586469650268555,-0.5753911733627319,0.3238007724285126,-0.05122045427560806,-0.04507732391357422,0,0,0
440255090,d4:22:cd:00:30:92,0.5431451797485352,0.43893861770629883,0.4257460832595825,-0.5753838419914246,0.26975420117378235,-0.03707744553685188,-0.06133747100830078,0,0,0
440271757,d4:22:cd:00:30:92,0.5432610511779785,0.4389554560184479,0.42565029859542847,-0.575332522392273,0.3372117578983307,-0.030989401042461395,-0.04146766662597656,0,0,0
440288424,d4:22:cd:00:30:92,0.5434548854827881,0.43888258934020996,0.42562335729599,-0.5752249360084534,0.2946104109287262,-0.03183472529053688,-0.024837493896484375,0,0,0
440305091,d4:22:cd:00:30:92,0.5435953140258789,0.43885481357574463,0.42560291290283203,-0.5751285552978516,0.2882586121559143,-0.007325860671699047,-0.054930686950683594,0,0,0
440321758,d4:22:cd:00:30:92,0.5436487197875977,0.4388701915740967,0.4255183935165405,-0.5751287937164307,0.26214849948883057,-0.021945172920823097,-0.06270885467529297,0,0,0
440338425,d4:22:cd:00:30:92,0.5437174439430237,0.438925176858902,0.4254172742366791,-0.5750967264175415,0.29229751229286194,-0.022639626637101173,-0.06372928619384766,0,0,0
440355092,d4:22:cd:00:30:92,0.5438055992126465,0.4389673173427582,0.42537951469421387,-0.5750091671943665,0.31762486696243286,0.004939412698149681,-0.001941680908203125,0,0,0
440371759,d4:22:cd:00:30:92,0.5438669323921204,0.43897297978401184,0.42548105120658875,-0.5748717188835144,0.32315078377723694,-0.029709119349718094,0.012160301208496094,0,0,0
440388426,d4:22:cd:00:30:92,0.5439441800117493,0.43894141912460327,0.42560848593711853,-0.57472825050354,0.26891425251960754,-0.05936034768819809,0.010015487670898438,0,0,0
440405093,d4:22:cd:00:30:92,0.54400235414505,0.4389396607875824,0.4257030189037323,-0.5746045112609863,0.2804987132549286,-0.05294172465801239,-0.06195354461669922,0,0,0
440421760,d4:22:cd:00:30:92,0.5440987348556519,0.43890589475631714,0.4258142411708832,-0.5744566321372986,0.27149829268455505,-0.04943033680319786,-0.05180072784423828,0,0,0
440438427,d4:22:cd:00:30:92,0.5441924929618835,0.43885335326194763,0.42586302757263184,-0.5743717551231384,0.21425393223762512,-0.07022978365421295,-0.04926872253417969,0,0,0
440455094,d4:22:cd:00:30:92,0.5442075729370117,0.4389071464538574,0.42581048607826233,-0.5743554830551147,0.1695312261581421,-0.061046306043863297,-0.04657268524169922,0,0,0
440471761,d4:22:cd:00:30:92,0.5442019701004028,0.4389505088329315,0.42571401596069336,-0.5743991732597351,0.2790078818798065,-0.11106067895889282,-0.007441520690917969,0,0,0
440488428,d4:22:cd:00:30:92,0.5441996455192566,0.43891191482543945,0.42568114399909973,-0.5744552612304688,0.2926734387874603,-0.11329871416091919,0.017293930053710938,0,0,0
440505095,d4:22:cd:00:30:92,0.5441993474960327,0.43883341550827026,0.42569664120674133,-0.5745038390159607,0.2307719886302948,-0.08009787648916245,-0.013519287109375,0,0,0
440521762,d4:22:cd:00:30:92,0.5441492199897766,0.43883004784584045,0.42563971877098083,-0.5745961666107178,0.24257570505142212,-0.023027198389172554,-0.04411602020263672,0,0,0
440538429,d4:22:cd:00:30:92,0.5440406203269958,0.43888428807258606,0.42554083466529846,-0.5747308135032654,0.2737535238265991,-0.07671388983726501,-0.025412559509277344,0,0,0
440555096,d4:22:cd:00:30:92,0.5440250635147095,0.438801109790802,0.42556458711624146,-0.574791431427002,0.3472749888896942,-0.142238050699234,0.009237289428710938,0,0,0
440571763,d4:22:cd:00:30:92,0.5440928936004639,0.438625693321228,0.42566290497779846,-0.574788510799408,0.30573710799217224,-0.11216684430837631,-0.01895618438720703,0,0,0
440588430,d4:22:cd:00:30:92,0.5441322326660156,0.4384777247905731,0.4257510304450989,-0.5747988224029541,0.28801098465919495,-0.08732762932777405,0.0013179779052734375,0,0,0
440605097,d4:22:cd:00:30:92,0.5441796183586121,0.43833234906196594,0.4257737398147583,-0.5748478770256042,0.2755018472671509,-0.038684505969285965,-0.05059337615966797,0,0,0
440621764,d4:22:cd:00:30:92,0.5441712141036987,0.43822237849235535,0.4257544279098511,-0.574954092502594,0.3121512532234192,-0.06411044299602509,-0.020279884338378906,0,0,0
440638431,d4:22:cd:00:30:92,0.5442380309104919,0.43804678320884705,0.4257251024246216,-0.5750463008880615,0.29951295256614685,-0.05176113173365593,-0.020610809326171875,0,0,0
440655098,d4:22:cd:00:30:92,0.5442694425582886,0.4379432499408722,0.4256795048713684,-0.5751290917396545,0.3213827908039093,-0.030542152002453804,-0.0181884765625,0,0,0
440671765,d4:22:cd:00:30:92,0.5443189144134521,0.43782562017440796,0.42560258507728577,-0.5752289295196533,0.3195119798183441,-0.09222591668367386,0.024311065673828125,0,0,0
440688432,d4:22:cd:00:30:92,0.5444003343582153,0.43770578503608704,0.42548394203186035,-0.5753308534622192,0.33287763595581055,-0.03697887808084488,-0.013088226318359375,0,0,0
440705099,d4:22:cd:00:30:92,0.5444705486297607,0.4376235008239746,0.425348162651062,-0.5754272937774658,0.33389168977737427,0.012344843707978725,-0.03304576873779297,0,0,0
440721766,d4:22:cd:00:30:92,0.5445363521575928,0.437532514333725,0.4252631962299347,-0.5754970908164978,0.3241809606552124,-0.011965765617787838,-0.049620628356933594,0,0,0
440738433,d4:22:cd:00:30:92,0.5445742011070251,0.4374397397041321,0.42514345049858093,-0.5756201148033142,0.3044496774673462,-0.06015694886445999,-0.05785560607910156,0,0,0
440755100,d4:22:cd:00:30:92,0.5446518063545227,0.437330037355423,0.42494967579841614,-0.5757731795310974,0.28342336416244507,-0.06868419051170349,-0.06779193878173828,0,0,0
440771767,d4:22:cd:00:30:92,0.5447908043861389,0.437254935503006,0.4246893525123596,-0.5758908987045288,0.31938639283180237,-0.02032984420657158,-0.08465957641601562,0,0,0
440788434,d4:22:cd:00:30:92,0.5449578762054443,0.43718424439430237,0.42444905638694763,-0.5759634971618652,0.29975926876068115,0.046575404703617096,-0.11672592163085938,0,0,0
440805101,d4:22:cd:00:30:92,0.5450138449668884,0.43718791007995605,0.4241216480731964,-0.5761489272117615,0.2681259214878082,0.0624164417386055,-0.10669422149658203,0,0,0
440821768,d4:22:cd:00:30:92,0.544978141784668,0.43723249435424805,0.42379140853881836,-0.5763919353485107,0.30539894104003906,0.02295902743935585,-0.09164237976074219,0,0,0
440838435,d4:22:cd:00:30:92,0.5449380874633789,0.4372837543487549,0.4234883487224579,-0.5766133666038513,0.2788011133670807,0.012431567534804344,-0.07947158813476562,0,0,0
440855102,d4:22:cd:00:30:92,0.5449579358100891,0.4373687207698822,0.42312467098236084,-0.5767971873283386,0.30114415287971497,0.030850598588585854,-0.07145214080810547,0,0,0
440871769,d4:22:cd:00:30:92,0.5450173020362854,0.4374268651008606,0.4228300452232361,-0.5769131779670715,0.31826165318489075,0.07142245024442673,-0.11561298370361328,0,0,0
440888436,d4:22:cd:00:30:92,0.545056164264679,0.43746647238731384,0.4226074516773224,-0.5770094394683838,0.2997919023036957,0.062067534774541855,-0.06450557708740234,0,0,0
440905103,d4:22:cd:00:30:92,0.5450757741928101,0.43749576807022095,0.42240050435066223,-0.577120304107666,0.3144315481185913,0.058080513030290604,-0.04999065399169922,0,0,0
440921770,d4:22:cd:00:30:92,0.5450051426887512,0.43761974573135376,0.42223623394966125,-0.5772131085395813,0.2883448898792267,0.06456618756055832,-0.03796958923339844,0,0,0
440938437,d4:22:cd:00:30:92,0.5448597073554993,0.43777358531951904,0.4221525490283966,-0.5772948265075684,0.3203754127025604,0.025891516357660294,-0.019037246704101562,0,0,0
440955104,d4:22:cd:00:30:92,0.5447580218315125,0.4378930926322937,0.42208003997802734,-0.5773531198501587,0.28895798325538635,-0.031230347231030464,-0.03136157989501953,0,0,0
440971771,d4:22:cd:00:30:92,0.5446308851242065,0.4380703270435333,0.42193686962127686,-0.5774434208869934,0.26073479652404785,0.004196902737021446,-0.0962371826171875,0,0,0
440988438,d4:22:cd:00:30:92,0.5444959998130798,0.43827372789382935,0.42179936170578003,-0.5775167942047119,0.27553045749664307,0.010348202660679817,-0.10133552551269531,0,0,0
441005105,d4:22:cd:00:30:92,0.5443779230117798,0.4384382665157318,0.42163383960723877,-0.5776242613792419,0.31201401352882385,-0.0234905406832695,-0.06664562225341797,0,0,0
441021772,d4:22:cd:00:30:92,0.5443007349967957,0.4385569095611572,0.4215492308139801,-0.5776684284210205,0.29564058780670166,-0.006252774968743324,-0.10784530639648438,0,0,0
441038439,d4:22:cd:00:30:92,0.5441927313804626,0.4386724531650543,0.4214877486228943,-0.5777272582054138,0.276979923248291,-0.024924376979470253,0.007659912109375,0,0,0
441055106,d4:22:cd:00:30:92,0.54403156042099,0.4388347864151001,0.42130953073501587,-0.5778857469558716,0.26085928082466125,-0.03191474452614784,-0.03401756286621094,0,0,0
441071773,d4:22:cd:00:30:92,0.5438118577003479,0.4391033947467804,0.42102858424186707,-0.5780931711196899,0.2815156877040863,-0.009521204978227615,-0.025859832763671875,0,0,0
441088440,d4:22:cd:00:30:92,0.5436422228813171,0.4393310546875,0.42081427574157715,-0.5782361030578613,0.33566930890083313,-0.02902516908943653,-0.024089813232421875,0,0,0
441105107,d4:22:cd:00:30:92,0.5435269474983215,0.43950316309928894,0.4206015169620514,-0.5783681869506836,0.29653307795524597,-0.020616834983229637,-0.004380226135253906,0,0,0
441121774,d4:22:cd:00:30:92,0.5433940887451172,0.43969428539276123,0.42041316628456116,-0.5784846544265747,0.2850181460380554,0.004826538730412722,-0.07578086853027344,0,0,0
441138441,d4:22:cd:00:30:92,0.5432372093200684,0.43990057706832886,0.4202042520046234,-0.5786268711090088,0.26847660541534424,-0.04664469510316849,-0.06785202026367188,0,0,0
441155108,d4:22:cd:00:30:92,0.5431547164916992,0.44005101919174194,0.4200449585914612,-0.5787058472633362,0.3279782235622406,-0.05804787948727608,-0.057037353515625,0,0,0
441171775,d4:22:cd:00:30:92,0.5430893301963806,0.44016599655151367,0.41998419165611267,-0.5787238478660583,0.2798592448234558,-0.043451812118291855,-0.022594451904296875,0,0,0
441188442,d4:22:cd:00:30:92,0.5429803729057312,0.4403243958950043,0.41988787055015564,-0.5787755846977234,0.2716127336025238,-0.05768154188990593,-0.005564689636230469,0,0,0
441205109,d4:22:cd:00:30:92,0.5428146123886108,0.4404973089694977,0.4198231101036072,-0.5788462162017822,0.30815887451171875,-0.054966527968645096,-0.03292655944824219,0,0,0
441221776,d4:22:cd:00:30:92,0.5426434874534607,0.44059333205223083,0.41984158754348755,-0.5789202451705933,0.285454660654068,-0.08607327193021774,-0.015268325805664062,0,0,0
441238443,d4:22:cd:00:30:92,0.5424687266349792,0.4407052993774414,0.41981950402259827,-0.579014778137207,0.25655800104141235,-0.08808153867721558,-0.006314277648925781,0,0,0
441255110,d4:22:cd:00:30:92,0.5423427820205688,0.440838485956192,0.41972145438194275,-0.579102635383606,0.2904139459133148,-0.08670537173748016,-0.0021505355834960938,0,0,0
441271777,d4:22:cd:00:30:92,0.5422951579093933,0.44094914197921753,0.41959458589553833,-0.5791548490524292,0.29705363512039185,-0.06591217964887619,-0.002655029296875,0,0,0
441288444,d4:22:cd:00:30:92,0.5422677397727966,0.4410260319709778,0.4194912612438202,-0.5791968107223511,0.2916482090950012,-0.09649433940649033,0.0049533843994140625,0,0,0
441305111,d4:22:cd:00:30:92,0.5422067046165466,0.44109174609184265,0.41937050223350525,-0.5792914628982544,0.29174497723579407,-0.09594114869832993,-0.008383750915527344,0,0,0
441321778,d4:22:cd:00:30:92,0.5421469211578369,0.44111353158950806,0.4193194508552551,-0.5793675780296326,0.2834993600845337,-0.1265619695186615,-0.037789344787597656,0,0,0
441338445,d4:22:cd:00:30:92,0.5420842170715332,0.44111835956573486,0.4193004369735718,-0.5794364213943481,0.25644445419311523,-0.08429232239723206,-0.0760488510131836,0,0,0
441355112,d4:22:cd:00:30:92,0.5420113801956177,0.4411498010158539,0.4192309081554413,-0.5795310735702515,0.27554699778556824,-0.08874693512916565,-0.02033710479736328,0,0,0
441371779,d4:22:cd:00:30:92,0.5420347452163696,0.4411046802997589,0.41923677921295166,-0.5795391798019409,0.2859649360179901,-0.08109474927186966,-0.04016304016113281,0,0,0
441388446,d4:22:cd:00:30:92,0.5420762300491333,0.44110774993896484,0.4191606938838959,-0.5795530676841736,0.23775474727153778,-0.05685565993189812,-0.06261444091796875,0,0,0
441405113,d4:22:cd:00:30:92,0.5420911908149719,0.441151887178421,0.41903191804885864,-0.5795987248420715,0.2601489722728729,-0.050823941826820374,-0.1031951904296875,0,0,0
441421780,d4:22:cd:00:30:92,0.5420722365379333,0.4411828815937042,0.4189421236515045,-0.5796577334403992,0.2813212275505066,-0.05876133218407631,-0.0980539321899414,0,0,0
441438447,d4:22:cd:00:30:92,0.5420969128608704,0.441117525100708,0.41900551319122314,-0.5796384811401367,0.27227500081062317,-0.06996984034776688,-0.04404926300048828,0,0,0
441455114,d4:22:cd:00:30:92,0.5421051979064941,0.4410628080368042,0.4190894365310669,-0.5796116590499878,0.27186819911003113,-0.10012955963611603,0.011209487915039062,0,0,0
441471781,d4:22:cd:00:30:92,0.5421392321586609,0.44102320075035095,0.41913101077079773,-0.5795798897743225,0.26281970739364624,-0.0602237768471241,-0.041393280029296875,0,0,0
441488448,d4:22:cd:00:30:92,0.5421659350395203,0.44107314944267273,0.419072687625885,-0.5795589685440063,0.28566229343414307,-0.020422155037522316,-0.06961917877197266,0,0,0
441505115,d4:22:cd:00:30:92,0.5421976447105408,0.441135048866272,0.41899582743644714,-0.5795378088951111,0.27436527609825134,-0.003410584293305874,-0.14693450927734375,0,0,0
441521782,d4:22:cd:00:30:92,0.5422083735466003,0.44117698073387146,0.4189296066761017,-0.5795435905456543,0.287952184677124,-0.056577835232019424,-0.10909557342529297,0,0,0
441538449,d4:22:cd:00:30:92,0.5422739386558533,0.44113320112228394,0.4188691973686218,-0.579559326171875,0.2511431872844696,-0.07010260224342346,-0.11691474914550781,0,0,0
441555116,d4:22:cd:00:30:92,0.542394757270813,0.44107404351234436,0.4188225567340851,-0.5795252323150635,0.2527012825012207,-0.05230449140071869,-0.06696796417236328,0,0,0
441571783,d4:22:cd:00:30:92,0.5424802899360657,0.4410955607891083,0.4187244772911072,-0.5794994831085205,0.2328718900680542,0.037855494767427444,-0.09607315063476562,0,0,0
441588450,d4:22:cd:00:30:92,0.5424135327339172,0.4412546753883362,0.4185359477996826,-0.5795772075653076,0.2634386420249939,0.00013723695883527398,-0.033377647399902344,0,0,0
441605117,d4:22:cd:00:30:92,0.5423902273178101,0.44138088822364807,0.4183673858642578,-0.5796245336532593,0.2921602725982666,0.0020049111917614937,-0.07711982727050781,0,0,0
441621784,d4:22:cd:00:30:92,0.5424305200576782,0.4414566159248352,0.4182875156402588,-0.5795868635177612,0.3142169713973999,-0.009694650769233704,-0.041095733642578125,0,0,0
441638451,d4:22:cd:00:30:92,0.5425404906272888,0.4414384663105011,0.4183467626571655,-0.5794548392295837,0.2506483197212219,0.02795722335577011,-0.040709495544433594,0,0,0
441655118,d4:22:cd:00:30:92,0.5425596833229065,0.4415154457092285,0.41830605268478394,-0.5794076919555664,0.20366612076759338,0.028437776491045952,-0.043895721435546875,0,0,0
441671785,d4:22:cd:00:30:92,0.5425018072128296,0.441714346408844,0.4182158410549164,-0.5793755054473877,0.2573034167289734,-0.021446067839860916,-0.059360504150390625,0,0,0
441688452,d4:22:cd:00:30:92,0.5424972772598267,0.4418456256389618,0.4182600975036621,-0.5792475342750549,0.2736107110977173,-0.05533532425761223,-0.02491283416748047,0,0,0
441705119,d4:22:cd:00:30:92,0.5424990653991699,0.4419633746147156,0.41835319995880127,-0.5790888071060181,0.22053688764572144,-0.008080664090812206,-0.04240703582763672,0,0,0
441721786,d4:22:cd:00:30:92,0.5424644351005554,0.44208651781082153,0.41843998432159424,-0.5789645314216614,0.2226506471633911,-0.023309718817472458,-0.04418182373046875,0,0,0
441738453,d4:22:cd:00:30:92,0.5424404144287109,0.442147433757782,0.41856154799461365,-0.5788527131080627,0.23014146089553833,-0.06073629483580589,-0.03519248962402344,0,0,0
441755120,d4:22:cd:00:30:92,0.5423953533172607,0.4421730935573578,0.4186793863773346,-0.5787898898124695,0.17413805425167084,-0.10295498371124268,-0.042728424072265625,0,0,0
441771787,d4:22:cd:00:30:92,0.5423045754432678,0.44225263595581055,0.41863635182380676,-0.5788453817367554,0.14327090978622437,-0.11979981511831284,-0.006066322326660156,0,0,0
441788454,d4:22:cd:00:30:92,0.5421990156173706,0.44238317012786865,0.41850319504737854,-0.5789408683776855,0.20662297308444977,-0.09182895720005035,0.010015487670898438,0,0,0
441805121,d4:22:cd:00:30:92,0.5421252846717834,0.44247955083847046,0.4183541238307953,-0.5790441036224365,0.2381085753440857,-0.09231778234243393,0.029478073120117188,0,0,0
441821788,d4:22:cd:00:30:92,0.5421600937843323,0.44245630502700806,0.4182705879211426,-0.5790894627571106,0.24390336871147156,-0.09748383611440659,0.018697738647460938,0,0,0
441838455,d4:22:cd:00:30:92,0.5422274470329285,0.4424251616001129,0.4181882441043854,-0.5791096687316895,0.21600806713104248,-0.1098637729883194,-0.02151203155517578,0,0,0
441855122,d4:22:cd:00:30:92,0.5422343015670776,0.4424796402454376,0.4180341362953186,-0.5791728496551514,0.19534294307231903,-0.1364651620388031,-0.02634143829345703,0,0,0
441871789,d4:22:cd:00:30:92,0.5422422885894775,0.44253504276275635,0.4178259074687958,-0.5792734026908875,0.22965218126773834,-0.11953853070735931,-0.08069515228271484,0,0,0
441888456,d4:22:cd:00:30:92,0.5422354340553284,0.4425756335258484,0.4176851809024811,-0.5793503522872925,0.25057077407836914,-0.07497652620077133,-0.12350749969482422,0,0,0
441905123,d4:22:cd:00:30:92,0.5423126816749573,0.4425401985645294,0.4176650941371918,-0.5793195962905884,0.25046905875205994,-0.0826687216758728,-0.07894325256347656,0,0,0
441921790,d4:22:cd:00:30:92,0.5424054861068726,0.4424839913845062,0.4176454246044159,-0.5792896151542664,0.1987459361553192,-0.061265796422958374,-0.09897994995117188,0,0,0
441938457,d4:22:cd:00:30:92,0.5425001382827759,0.442477285861969,0.4175536632537842,-0.5792723298072815,0.22913631796836853,-0.046875808387994766,-0.10479736328125,0,0,0
441955124,d4:22:cd:00:30:92,0.5425419807434082,0.4424990713596344,0.41746291518211365,-0.5792818665504456,0.22868750989437103,-0.013314890675246716,-0.060794830322265625,0,0,0
441971791,d4:22:cd:00:30:92,0.5425602197647095,0.44254070520401,0.4174199402332306,-0.5792639255523682,0.24417650699615479,-0.003949027042835951,0.005875587463378906,0,0,0
441988458,d4:22:cd:00:30:92,0.5425460934638977,0.44263702630996704,0.41729819774627686,-0.5792912840843201,0.242418572306633,0.0020931989420205355,0.0643148422241211,0,0,0
442005125,d4:22:cd:00:30:92,0.5425142049789429,0.4427711069583893,0.4171413481235504,-0.5793316960334778,0.2555826008319855,-0.006267526652663946,0.034332275390625,0,0,0
442021792,d4:22:cd:00:30:92,0.5425302982330322,0.44288820028305054,0.41692596673965454,-0.579382061958313,0.23509249091148376,-0.0033453183714300394,0.001270294189453125,0,0,0
442038459,d4:22:cd:00:30:92,0.5425666570663452,0.4430158734321594,0.41668614745140076,-0.5794231295585632,0.18557922542095184,0.0072339968755841255,-0.08861923217773438,0,0,0
442055126,d4:22:cd:00:30:92,0.542634904384613,0.44312137365341187,0.4164399206638336,-0.5794556140899658,0.21670900285243988,-0.02903410978615284,-0.066802978515625,0,0,0
442071793,d4:22:cd:00:30:92,0.542731761932373,0.4431709945201874,0.4161950647830963,-0.5795028209686279,0.19652444124221802,-0.04487871751189232,-0.08090496063232422,0,0,0
442088460,d4:22:cd:00:30:92,0.5427744388580322,0.44324854016304016,0.41597580909729004,-0.5795608162879944,0.14776955544948578,-0.040519993752241135,-0.049431800842285156,0,0,0
442105127,d4:22:cd:00:30:92,0.5427829027175903,0.4433266520500183,0.41567128896713257,-0.5797116160392761,0.20824836194515228,-0.060813404619693756,0.01632976531982422,0,0,0
442121794,d4:22:cd:00:30:92,0.5428255796432495,0.4433566629886627,0.41544169187545776,-0.5798133611679077,0.19748419523239136,0.028725437819957733,-0.07909011840820312,0,0,0
442138461,d4:22:cd:00:30:92,0.5428271293640137,0.44342857599258423,0.41521790623664856,-0.5799172520637512,0.15485671162605286,0.0010082669323310256,-0.04759788513183594,0,0,0
442155128,d4:22:cd:00:30:92,0.5428462028503418,0.44350412487983704,0.4149187207221985,-0.5800557732582092,0.1751939207315445,-0.044367097318172455,-0.04699420928955078,0,0,0
442171795,d4:22:cd:00:30:92,0.5428515672683716,0.4435499310493469,0.41467615962028503,-0.580189049243927,0.2366463541984558,-0.048693638294935226,-0.035152435302734375,0,0,0
442188462,d4:22:cd:00:30:92,0.5429356098175049,0.44349682331085205,0.4145568311214447,-0.5802362561225891,0.18498915433883667,-0.07312360405921936,-0.017920494079589844,0,0,0
442205129,d4:22:cd:00:30:92,0.5429792404174805,0.4434998035430908,0.41439732909202576,-0.580307126045227,0.1751912385225296,-0.032988276332616806,-0.032764434814453125,0,0,0
442221796,d4:22:cd:00:30:92,0.542949378490448,0.4435773491859436,0.4141944646835327,-0.580420732498169,0.16691790521144867,-0.01581622287631035,-0.04474449157714844,0,0,0
442238463,d4:22:cd:00:30:92,0.542834460735321,0.44368883967399597,0.41397932171821594,-0.5805963277816772,0.1909513622522354,-0.055020395666360855,-0.06395435333251953,0,0,0
442255130,d4:22:cd:00:30:92,0.5427244305610657,0.4437480866909027,0.4138084053993225,-0.5807759165763855,0.18953004479408264,-0.09299837797880173,-0.03421497344970703,0,0,0
442271797,d4:22:cd:00:30:92,0.542599618434906,0.44382986426353455,0.4135950803756714,-0.5809818506240845,0.16767427325248718,-0.08551851660013199,-0.05953788757324219,0,0,0
442288464,d4:22:cd:00:30:92,0.5425122380256653,0.4439179301261902,0.4133363664150238,-0.581180214881897,0.21582187712192535,-0.0995841845870018,-0.04886913299560547,0,0,0
442305131,d4:22:cd:00:30:92,0.5425147414207458,0.4439375102519989,0.41314035654067993,-0.5813024640083313,0.2419525533914566,-0.07606972754001617,-0.040762901306152344,0,0,0
442321798,d4:22:cd:00:30:92,0.542589545249939,0.4438824951648712,0.4130190908908844,-0.5813606977462769,0.25033897161483765,-0.06862898170948029,-0.03383064270019531,0,0,0
442338465,d4:22:cd:00:30:92,0.5426767468452454,0.443798303604126,0.4128996431827545,-0.5814283490180969,0.20403581857681274,-0.02239331603050232,-0.044963836669921875,0,0,0
442355132,d4:22:cd:00:30:92,0.5426585674285889,0.4438106417655945,0.4127724766731262,-0.5815263390541077,0.2138301581144333,-0.02851153537631035,-0.06679344177246094,0,0,0
442371799,d4:22:cd:00:30:92,0.5425778031349182,0.4438428580760956,0.4126192033290863,-0.5816857814788818,0.21797631680965424,-0.08002591133117676,-0.01929187774658203,0,0,0
442388466,d4:22:cd:00:30:92,0.5425679087638855,0.44384118914604187,0.41247084736824036,-0.5818014144897461,0.23262758553028107,-0.09793175756931305,-0.03616809844970703,0,0,0
442405133,d4:22:cd:00:30:92,0.5426417589187622,0.4438472092151642,0.4123476445674896,-0.5818153023719788,0.2408027946949005,-0.024762554094195366,-0.06380176544189453,0,0,0
442421800,d4:22:cd:00:30:92,0.5427627563476562,0.4438358545303345,0.41225242614746094,-0.5817786455154419,0.26153162121772766,-0.018709821626544,-0.041988372802734375,0,0,0
442438467,d4:22:cd:00:30:92,0.542910099029541,0.4437919557094574,0.4121481478214264,-0.5817484855651855,0.21920473873615265,-0.032364677637815475,-0.03841209411621094,0,0,0
442455134,d4:22:cd:00:30:92,0.5429945588111877,0.4438247084617615,0.4119580388069153,-0.581779420375824,0.1761181503534317,-0.03572385385632515,-0.07353878021240234,0,0,0
442471801,d4:22:cd:00:30:92,0.5430614948272705,0.44388216733932495,0.4117039442062378,-0.5818529725074768,0.1961703896522522,-0.09839822351932526,-0.06470394134521484,0,0,0
442488468,d4:22:cd:00:30:92,0.5431478023529053,0.44390860199928284,0.41148504614830017,-0.5819069743156433,0.2166113257408142,-0.04509910196065903,-0.09487152099609375,0,0,0
442505135,d4:22:cd:00:30:92,0.5432572364807129,0.443896621465683,0.41137006878852844,-0.5818952918052673,0.2467290163040161,-0.03524240478873253,-0.010889053344726562,0,0,0
442521802,d4:22:cd:00:30:92,0.5433743596076965,0.4438745081424713,0.4113115072250366,-0.58184415102005,0.21548637747764587,-0.04527724161744118,0.00273895263671875,0,0,0
442538469,d4:22:cd:00:30:92,0.5435706377029419,0.44386500120162964,0.4112296402454376,-0.5817259550094604,0.2036202996969223,-0.03200705349445343,-0.017462730407714844,0,0,0
442555136,d4:22:cd:00:30:92,0.5438002943992615,0.44389814138412476,0.41103339195251465,-0.5816247463226318,0.18085819482803345,-0.010741138830780983,-0.08044910430908203,0,0,0
442571803,d4:22:cd:00:30:92,0.5439620614051819,0.44398900866508484,0.410789430141449,-0.581576406955719,0.15875297784805298,-0.041084811091423035,-0.08092498779296875,0,0,0
442588470,d4:22:cd:00:30:92,0.5441163778305054,0.44406014680862427,0.41049841046333313,-0.5815832614898682,0.1602368801832199,-0.10032088309526443,-0.07110595703125,0,0,0
442605137,d4:22:cd:00:30:92,0.5442913770675659,0.44412389397621155,0.4102028012275696,-0.5815794467926025,0.171489417552948,-0.1271592080593109,-0.06849098205566406,0,0,0
442621804,d4:22:cd:00:30:92,0.5444575548171997,0.4441891312599182,0.4099133014678955,-0.5815780758857727,0.1345275342464447,-0.07451072335243225,-0.048895835876464844,0,0,0
442638471,d4:22:cd:00:30:92,0.5444431304931641,0.4443809688091278,0.4094507098197937,-0.5817708969116211,0.08608690649271011,-0.026876315474510193,0.015268325805664062,0,0,0
442655138,d4:22:cd:00:30:92,0.544257402420044,0.4447304606437683,0.4088010787963867,-0.5821345448493958,0.15349192917346954,-0.06102574244141579,0.009412765502929688,0,0,0
442671805,d4:22:cd:00:30:92,0.5441150069236755,0.4450363516807556,0.40817633271217346,-0.5824719667434692,0.24862150847911835,-0.11463912576436996,0.028842926025390625,0,0,0
442688472,d4:22:cd:00:30:92,0.5440486669540405,0.44520363211631775,0.4078098237514496,-0.5826627612113953,0.3091561794281006,-0.17186492681503296,0.05303192138671875,0,0,0
442705139,d4:22:cd:00:30:92,0.5441993474960327,0.44508445262908936,0.40768370032310486,-0.5827013850212097,0.2775192856788635,-0.21263346076011658,0.09709930419921875,0,0,0
442721806,d4:22:cd:00:30:92,0.5444915294647217,0.4448334872722626,0.4076538383960724,-0.5826410055160522,0.2488202154636383,-0.13454139232635498,0.031325340270996094,0,0,0
442738473,d4:22:cd:00:30:92,0.5447899103164673,0.4445781409740448,0.40765219926834106,-0.5825580954551697,0.20991845428943634,-0.06587440520524979,0.05090904235839844,0,0,0
442755140,d4:22:cd:00:30:92,0.5451461672782898,0.44427427649497986,0.407570481300354,-0.5825138688087463,0.15174518525600433,-0.10198896378278732,0.08919811248779297,0,0,0
442771807,d4:22:cd:00:30:92,0.5455273389816284,0.44397735595703125,0.4072560667991638,-0.582603394985199,0.13470925390720367,-0.08794005215167999,0.03693389892578125,0,0,0
442788474,d4:22:cd:00:30:92,0.5459571480751038,0.44364428520202637,0.40683498978614807,-0.582748532295227,0.17235374450683594,-0.10690312087535858,0.0075206756591796875,0,0,0
442805141,d4:22:cd:00:30:92,0.5463934540748596,0.4433363080024719,0.4063647985458374,-0.5829020738601685,0.11210314929485321,-0.04960378259420395,-0.022869110107421875,0,0,0
442821808,d4:22:cd:00:30:92,0.5466763973236084,0.4431728720664978,0.4056897461414337,-0.5832313895225525,0.0847368910908699,0.04249763488769531,-0.0866689682006836,0,0,0
442838475,d4:22:cd:00:30:92,0.5467151999473572,0.44311657547950745,0.4049273729324341,-0.5837672352790833,0.0746222585439682,-0.04123188182711601,-0.06211090087890625,0,0,0
442855142,d4:22:cd:00:30:92,0.5466813445091248,0.443145751953125,0.4042108952999115,-0.584273099899292,0.17272455990314484,0.061944380402565,-0.1918773651123047,0,0,0
442871809,d4:22:cd:00:30:92,0.546673059463501,0.4431101679801941,0.40359336137771606,-0.5847346782684326,0.1016145795583725,-0.06629282236099243,-0.0402984619140625,0,0,0
442888476,d4:22:cd:00:30:92,0.5465863943099976,0.44315364956855774,0.4028717577457428,-0.5852798223495483,0.0005241378676146269,0.03467334061861038,-0.1645803451538086,0,0,0
442905143,d4:22:cd:00:30:92,0.5463990569114685,0.4433988928794861,0.40213799476623535,-0.5857734680175781,0.1819397658109665,0.06104272976517677,-0.17291831970214844,0,0,0
442921810,d4:22:cd:00:30:92,0.5463522672653198,0.44344279170036316,0.4017925262451172,-0.5860210061073303,0.28064799308776855,0.026916995644569397,-0.08731842041015625,0,0,0
442938477,d4:22:cd:00:30:92,0.5463364124298096,0.4432959258556366,0.40176159143447876,-0.586168110370636,0.13856036961078644,0.006746515166014433,-0.0713968276977539,0,0,0
442955144,d4:22:cd:00:30:92,0.5462231040000916,0.4433276355266571,0.40152570605278015,-0.5864112973213196,0.052769843488931656,0.04752958193421364,-0.10378742218017578,0,0,0
442971811,d4:22:cd:00:30:92,0.5460957288742065,0.44346240162849426,0.4012044370174408,-0.5866478085517883,0.14841371774673462,0.03868763521313667,-0.055973052978515625,0,0,0
442988478,d4:22:cd:00:30:92,0.546053946018219,0.44354549050331116,0.4009499251842499,-0.5867976546287537,0.14734041690826416,0.06703466176986694,-0.07927989959716797,0,0,0
443005145,d4:22:cd:00:30:92,0.5460559129714966,0.44363468885421753,0.4007309377193451,-0.5868781208992004,0.191915825009346,0.07764929533004761,-0.1054534912109375,0,0,0
443021812,d4:22:cd:00:30:92,0.5460829138755798,0.44365817308425903,0.4005834460258484,-0.5869359374046326,0.17307300865650177,-0.0006253892788663507,-0.1018819808959961,0,0,0
443038479,d4:22:cd:00:30:92,0.5460848212242126,0.44368791580200195,0.4004397392272949,-0.5870097875595093,0.10946480184793472,-0.016081757843494415,-0.09453582763671875,0,0,0
443055146,d4:22:cd:00:30:92,0.5459942817687988,0.4439428448677063,0.4000313878059387,-0.5871796011924744,0.07883413881063461,0.01585802063345909,-0.04337310791015625,0,0,0
443071813,d4:22:cd:00:30:92,0.5457507371902466,0.4443989396095276,0.39926981925964355,-0.5875791907310486,0.03472452610731125,-0.026052000001072884,-0.031063079833984375,0,0,0
443088480,d4:22:cd:00:30:92,0.5453318953514099,0.4449716806411743,0.3982403874397278,-0.5882329344749451,0.055118296295404434,-0.14037306606769562,0.05471324920654297,0,0,0
443105147,d4:22:cd:00:30:92,0.5448625087738037,0.4455208480358124,0.3972029983997345,-0.5889531970024109,0.14581315219402313,-0.23013833165168762,0.03753376007080078,0,0,0
443121814,d4:22:cd:00:30:92,0.5445699095726013,0.445892333984375,0.39631402492523193,-0.5895412564277649,0.21139051020145416,-0.3312142491340637,0.12052345275878906,0,0,0
443138481,d4:22:cd:00:30:92,0.5445565581321716,0.44599899649620056,0.39560166001319885,-0.5899512767791748,0.19688227772712708,-0.26191583275794983,0.09892845153808594,0,0,0
443155148,d4:22:cd:00:30:92,0.5447430610656738,0.44596347212791443,0.3949548304080963,-0.5902393460273743,0.2000666707754135,-0.15023446083068848,0.01860332489013672,0,0,0
443171815,d4:22:cd:00:30:92,0.5450035929679871,0.4458314776420593,0.3945678472518921,-0.5903574228286743,0.25348180532455444,-0.13023273646831512,-0.0096588134765625,0,0,0
443188482,d4:22:cd:00:30:92,0.5452675819396973,0.4456055462360382,0.39432141184806824,-0.5904486179351807,0.12399627268314362,-0.1620701402425766,0.014120101928710938,0,0,0
443205149,d4:22:cd:00:30:92,0.5453733205795288,0.4454764425754547,0.39390483498573303,-0.590726375579834,0.07388690114021301,-0.13075105845928192,-0.00013065338134765625,0,0,0
443221816,d4:22:cd:00:30:92,0.5454179048538208,0.4453413486480713,0.39349132776260376,-0.5910627841949463,0.09101603925228119,-0.11766348034143448,-0.03411674499511719,0,0,0
443238483,d4:22:cd:00:30:92,0.5455229878425598,0.4451397955417633,0.3931272029876709,-0.5913596749305725,0.17978107929229736,-0.12188272923231125,-0.045701026916503906,0,0,0
443255150,d4:22:cd:00:30:92,0.5458571910858154,0.4448065757751465,0.3929269015789032,-0.5914350748062134,0.15781959891319275,-0.12745781242847443,-0.02693939208984375,0,0,0
443271817,d4:22:cd:00:30:92,0.5462032556533813,0.44452324509620667,0.39263543486595154,-0.591522216796875,0.0797836184501648,-0.06219002231955528,-0.045683860778808594,0,0,0
443288484,d4:22:cd:00:30:92,0.5464802980422974,0.4442787170410156,0.3922717273235321,-0.5916913151741028,0.05900071561336517,-0.08565887808799744,0.0030689239501953125,0,0,0
443305151,d4:22:cd:00:30:92,0.5466768145561218,0.4440547823905945,0.39175498485565186,-0.5920202136039734,0.05126805976033211,-0.1856100708246231,0.06254959106445312,0,0,0
443321818,d4:22:cd:00:30:92,0.5469046235084534,0.4438196122646332,0.39104393124580383,-0.5924561023712158,0.02614051103591919,-0.2192755937576294,0.07750415802001953,0,0,0
443338485,d4:22:cd:00:30:92,0.5470802783966064,0.4437323808670044,0.3899104595184326,-0.5931059122085571,0.051441729068756104,-0.1674027144908905,0.04430389404296875,0,0,0
443355152,d4:22:cd:00:30:92,0.5473608374595642,0.44368836283683777,0.38854196667671204,-0.5937778949737549,0.27325621247291565,-0.11977679282426834,0.03068828582763672,0,0,0
443371819,d4:22:cd:00:30:92,0.5478994846343994,0.4433564245700836,0.3872731626033783,-0.5943574905395508,0.2054886519908905,-0.19380562007427216,0.1054830551147461,0,0,0
443388486,d4:22:cd:00:30:92,0.5484216213226318,0.4429292678833008,0.38603371381759644,-0.5950002670288086,-0.1957712024450302,-0.23032741248607635,0.11204719543457031,0,0,0
443405153,d4:22:cd:00:30:92,0.5484963059425354,0.4430727958679199,0.38387763500213623,-0.5962184071540833,-0.2961924374103546,-0.18184342980384827,0.040019989013671875,0,0,0
443421820,d4:22:cd:00:30:92,0.5484189987182617,0.44352197647094727,0.38104337453842163,-0.5977717041969299,0.001991053344681859,-0.28416141867637634,0.1504669189453125,0,0,0
443438487,d4:22:cd:00:30:92,0.548494815826416,0.4437764585018158,0.37820494174957275,-0.5993138551712036,0.21098214387893677,-0.3324015438556671,0.1416769027709961,0,0,0
443455154,d4:22:cd:00:30:92,0.5489197969436646,0.44367995858192444,0.37562641501426697,-0.600616455078125,0.23542910814285278,-0.32115817070007324,0.11813926696777344,0,0,0
443471821,d4:22:cd:00:30:92,0.5496628284454346,0.4433748126029968,0.37300968170166016,-0.6017919182777405,0.21712584793567657,-0.2815588116645813,0.12701797485351562,0,0,0
443488488,d4:22:cd:00:30:92,0.5505219101905823,0.44286850094795227,0.370514452457428,-0.6029197573661804,0.09194496273994446,-0.24771247804164886,0.03720855712890625,0,0,0
443505155,d4:22:cd:00:30:92,0.5512065291404724,0.44242045283317566,0.36791104078292847,-0.6042162179946899,-0.18791605532169342,-0.12424302846193314,-0.01637554168701172,0,0,0
443521822,d4:22:cd:00:30:92,0.5514483451843262,0.4424615502357483,0.3646910786628723,-0.6059150695800781,-0.09298541396856308,-0.06775549054145813,-0.022893905639648438,0,0,0
443538489,d4:22:cd:00:30:92,0.5516628623008728,0.44255489110946655,0.36130213737487793,-0.6076793074607849,0.098660409450531,-0.12909124791622162,-0.0026483535766601562,0,0,0
443555156,d4:22:cd:00:30:92,0.551982045173645,0.44245368242263794,0.35824742913246155,-0.6092696189880371,0.279558390378952,-0.15671990811824799,0.03439807891845703,0,0,0
443571823,d4:22:cd:00:30:92,0.5526822209358215,0.44192609190940857,0.3555964529514313,-0.6105693578720093,0.33662012219429016,-0.16323262453079224,0.09370994567871094,0,0,0
443588490,d4:22:cd:00:30:92,0.5536999106407166,0.4411255121231079,0.35289478302001953,-0.6117925643920898,0.08462289720773697,-0.16528984904289246,0.1610279083251953,0,0,0
443605157,d4:22:cd:00:30:92,0.5548477172851562,0.44033750891685486,0.34986767172813416,-0.6130576133728027,0.0772666409611702,-0.16095860302448273,0.02654266357421875,0,0,0
443621824,d4:22:cd:00:30:92,0.5561662316322327,0.43956074118614197,0.34664544463157654,-0.6142494678497314,0.05400050804018974,-0.08691591769456863,0.006427764892578125,0,0,0
443638491,d4:22:cd:00:30:92,0.5574904680252075,0.4388117492198944,0.34313511848449707,-0.61555415391922,-0.16680604219436646,0.10590222477912903,0.02333354949951172,0,0,0
443655158,d4:22:cd:00:30:92,0.558415412902832,0.4384772777557373,0.3390643000602722,-0.6172077655792236,0.059697628021240234,0.045245058834552765,0.014525413513183594,0,0,0
443671825,d4:22:cd:00:30:92,0.5594823956489563,0.43799033761024475,0.3353322148323059,-0.6186245679855347,0.41234585642814636,-0.15142019093036652,0.10840702056884766,0,0,0
443688492,d4:22:cd:00:30:92,0.5607869029045105,0.43711283802986145,0.3319818377494812,-0.6198697090148926,0.31254085898399353,-0.2526863217353821,0.15335845947265625,0,0,0
443705159,d4:22:cd:00:30:92,0.5623308420181274,0.43598076701164246,0.328716903924942,-0.6210072040557861,0.08641189336776733,-0.22561129927635193,0.10371685028076172,0,0,0
443721826,d4:22:cd:00:30:92,0.5639469623565674,0.4349765479564667,0.3249678313732147,-0.6222180128097534,0.16035690903663635,-0.12990953028202057,0.014922142028808594,0,0,0
443738493,d4:22:cd:00:30:92,0.5658755302429199,0.43379849195480347,0.3212970495223999,-0.6231949329376221,0.29892948269844055,-0.07917030155658722,-0.0029878616333007812,0,0,0
443755160,d4:22:cd:00:30:92,0.5680543780326843,0.43232882022857666,0.31804358959198,-0.6239024996757507,0.20403122901916504,0.029022933915257454,-0.015794754028320312,0,0,0
443771827,d4:22:cd:00:30:92,0.5701925754547119,0.4310055077075958,0.31443724036216736,-0.6246951222419739,0.011819700710475445,0.02837720513343811,0.07401371002197266,0,0,0
443788494,d4:22:cd:00:30:92,0.5720686316490173,0.43003666400909424,0.30985599756240845,-0.6259356737136841,-0.019876783713698387,-0.030222974717617035,0.13776111602783203,0,0,0
443805161,d4:22:cd:00:30:92,0.5739655494689941,0.42908427119255066,0.3049060106277466,-0.6272821426391602,0.3018251955509186,-0.1882397085428238,0.14178943634033203,0,0,0
443821828,d4:22:cd:00:30:92,0.5762777328491211,0.4276539087295532,0.3003520369529724,-0.6283348202705383,0.3544372320175171,-0.23723441362380981,0.17684459686279297,0,0,0
443838495,d4:22:cd:00:30:92,0.5788782835006714,0.4258847236633301,0.2960892915725708,-0.6291688680648804,0.15315331518650055,-0.12345581501722336,0.22624874114990234,0,0,0
443855162,d4:22:cd:00:30:92,0.5814635753631592,0.42424947023391724,0.29127269983291626,-0.6301370859146118,-0.060422368347644806,-0.08241034299135208,0.17542076110839844,0,0,0
443871829,d4:22:cd:00:30:92,0.5838814973831177,0.4229573607444763,0.2856645882129669,-0.6313362121582031,0.21704281866550446,-0.03201420605182648,0.1815662384033203,0,0,0
443888496,d4:22:cd:00:30:92,0.5864396691322327,0.4214705526828766,0.27989110350608826,-0.632544219493866,0.2564402222633362,-0.13672176003456116,0.25700950622558594,0,0,0
443905163,d4:22:cd:00:30:92,0.5890617966651917,0.41972261667251587,0.2742074728012085,-0.6337582468986511,0.23549458384513855,-0.23021924495697021,0.21107196807861328,0,0,0
443921830,d4:22:cd:00:30:92,0.5917880535125732,0.41776561737060547,0.2686668038368225,-0.6348835229873657,0.1535412222146988,-0.29672127962112427,0.15735435485839844,0,0,0
443938497,d4:22:cd:00:30:92,0.5944826602935791,0.4157055914402008,0.26335984468460083,-0.6359410881996155,0.25577425956726074,-0.34769967198371887,0.07586288452148438,0,0,0
443955164,d4:22:cd:00:30:92,0.597294270992279,0.4132559895515442,0.25891509652137756,-0.6367277503013611,0.3199642598628998,-0.29213008284568787,-0.020972251892089844,0,0,0
443971831,d4:22:cd:00:30:92,0.600034773349762,0.41070863604545593,0.25509727001190186,-0.6373399496078491,0.07793661952018738,-0.11577188968658447,-0.2120227813720703,0,0,0
443988498,d4:22:cd:00:30:92,0.6023339033126831,0.4086143672466278,0.251338928937912,-0.6380102038383484,-0.036927469074726105,0.05998707935214043,-0.36419200897216797,0,0,0
444005165,d4:22:cd:00:30:92,0.6041688919067383,0.406940221786499,0.24757806956768036,-0.6388151049613953,-0.14110305905342102,0.1362130492925644,-0.42883968353271484,0,0,0
444021832,d4:22:cd:00:30:92,0.6055311560630798,0.4055294394493103,0.2438625693321228,-0.639850914478302,-0.13683228194713593,0.14583304524421692,-0.3078432083129883,0,0,0
444038499,d4:22:cd:00:30:92,0.606523334980011,0.4043646454811096,0.24006715416908264,-0.6410824060440063,-0.1025833934545517,0.09642080962657928,-0.2717294692993164,0,0,0
444055166,d4:22:cd:00:30:92,0.6073877811431885,0.40323546528816223,0.23659372329711914,-0.6422653198242188,0.10463804006576538,0.0652812048792839,-0.19959545135498047,0,0,0
444071833,d4:22:cd:00:30:92,0.6083028316497803,0.40191078186035156,0.2337397336959839,-0.6432739496231079,0.0936085656285286,0.13927091658115387,-0.19600677490234375,0,0,0
444088500,d4:22:cd:00:30:92,0.6091561317443848,0.4006080627441406,0.23118920624256134,-0.6441999673843384,-0.0690159946680069,0.291728675365448,-0.26163291931152344,0,0,0
444105167,d4:22:cd:00:30:92,0.6098042726516724,0.39963436126708984,0.22844330966472626,-0.6451705694198608,-0.1625100076198578,0.3312774896621704,-0.20393943786621094,0,0,0
444121834,d4:22:cd:00:30:92,0.6101952195167542,0.398872435092926,0.2254788726568222,-0.6463141441345215,-0.01781834103167057,0.2785373628139496,-0.1012420654296875,0,0,0
444138501,d4:22:cd:00:30:92,0.6105759143829346,0.3979433476924896,0.2226891815662384,-0.6474936008453369,0.13185890018939972,0.14590546488761902,0.02566051483154297,0,0,0
444155168,d4:22:cd:00:30:92,0.611086905002594,0.39669185876846313,0.22013744711875916,-0.6486510634422302,-0.0007515623001381755,-0.02060767076909542,0.22601318359375,0,0,0
444171835,d4:22:cd:00:30:92,0.6117435097694397,0.3952403664588928,0.2175130844116211,-0.6498022079467773,-0.09963749349117279,-0.11715163290500641,0.12131786346435547,0,0,0
444188502,d4:22:cd:00:30:92,0.6125873327255249,0.39363518357276917,0.2148721069097519,-0.6508595943450928,-0.04709194600582123,-0.07037774473428726,0.1016073226928711,0,0,0
444205169,d4:22:cd:00:30:92,0.6136765480041504,0.39177337288856506,0.21221128106117249,-0.651829183101654,-0.11684653908014297,-0.03487494960427284,0.2558622360229492,0,0,0
444221836,d4:22:cd:00:30:92,0.6147907376289368,0.3899344503879547,0.209184467792511,-0.6528593897819519,-0.13421930372714996,0.02567448653280735,0.17028236389160156,0,0,0
444238503,d4:22:cd:00:30:92,0.6158823370933533,0.38811561465263367,0.20591400563716888,-0.6539531946182251,-0.05685565993189812,0.007554067298769951,0.1386852264404297,0,0,0
444255170,d4:22:cd:00:30:92,0.6170567274093628,0.3860253393650055,0.20272250473499298,-0.6550795435905457,0.1043415442109108,-0.2479453831911087,0.42559337615966797,0,0,0
444271837,d4:22:cd:00:30:92,0.6183769702911377,0.38348591327667236,0.1997423619031906,-0.6562404632568359,-0.08575722575187683,-0.2574176490306854,0.30552101135253906,0,0,0
444288504,d4:22:cd:00:30:92,0.6195909976959229,0.38102737069129944,0.196480855345726,-0.6575107574462891,-0.18116216361522675,-0.1434488296508789,0.18996334075927734,0,0,0
444305171,d4:22:cd:00:30:92,0.6205554604530334,0.3788585662841797,0.19280824065208435,-0.6589401960372925,-0.08017633110284805,-0.1226806715130806,0.06318473815917969,0,0,0
444321838,d4:22:cd:00:30:92,0.6214145421981812,0.37680044770240784,0.18900002539157867,-0.6604125499725342,-0.07812348008155823,-0.059927623718976974,0.10628700256347656,0,0,0
444338505,d4:22:cd:00:30:92,0.6222843527793884,0.3747713565826416,0.18506965041160583,-0.661859393119812,0.0008011821773834527,-0.15977957844734192,0.15398597717285156,0,0,0
444355172,d4:22:cd:00:30:92,0.6232576370239258,0.37253230810165405,0.18107342720031738,-0.6633114218711853,0.12002656608819962,-0.1976855844259262,0.2188405990600586,0,0,0
444371839,d4:22:cd:00:30:92,0.6245623230934143,0.3698459565639496,0.17734597623348236,-0.6645933389663696,0.19247204065322876,-0.27581363916397095,0.24915218353271484,0,0,0
444388506,d4:22:cd:00:30:92,0.6260015368461609,0.36693787574768066,0.1738450527191162,-0.6657751798629761,0.130976140499115,-0.20110444724559784,0.17516517639160156,0,0,0
444405173,d4:22:cd:00:30:92,0.6274503469467163,0.364065021276474,0.1702008694410324,-0.6669291257858276,0.1135668233036995,-0.11798600852489471,0.17129993438720703,0,0,0
444421840,d4:22:cd:00:30:92,0.628728449344635,0.36132538318634033,0.1663638800382614,-0.6681823134422302,0.13866519927978516,-0.08856969326734543,0.0752859115600586,0,0,0
444438507,d4:22:cd:00:30:92,0.6299546360969543,0.35871949791908264,0.16243429481983185,-0.6693972945213318,0.09892582893371582,-0.13578367233276367,-0.005650520324707031,0,0,0
444455174,d4:22:cd:00:30:92,0.6310462355613708,0.3563247621059418,0.15834514796733856,-0.6706266403198242,0.05443713814020157,-0.08213743567466736,-0.10024738311767578,0,0,0
444471841,d4:22:cd:00:30:92,0.6321240067481995,0.35397544503211975,0.1542515605688095,-0.6718087792396545,0.1453135907649994,-0.10599967837333679,0.053734779357910156,0,0,0
444488508,d4:22:cd:00:30:92,0.6332908272743225,0.3514319956302643,0.15028274059295654,-0.6729438304901123,0.16960576176643372,-0.10752671957015991,0.049709320068359375,0,0,0
444505175,d4:22:cd:00:30:92,0.6345949769020081,0.3486141562461853,0.14657242596149445,-0.6739985942840576,0.22600333392620087,-0.11237717419862747,0.04383563995361328,0,0,0
444521842,d4:22:cd:00:30:92,0.6360737681388855,0.345453679561615,0.14328810572624207,-0.6749374270439148,0.2737482190132141,-0.12578324973583221,0.003945350646972656,0,0,0
444538509,d4:22:cd:00:30:92,0.6375607252120972,0.3423125743865967,0.14014843106269836,-0.675793468952179,0.12796452641487122,-0.04714670404791832,-0.005478858947753906,0,0,0
444555176,d4:22:cd:00:30:92,0.6388965845108032,0.3395046889781952,0.13662363588809967,-0.676669716835022,-0.00023575029626954347,0.03933313861489296,0.006580352783203125,0,0,0
444571843,d4:22:cd:00:30:92,0.6400630474090576,0.3370887339115143,0.1325770765542984,-0.677579402923584,0.08233552426099777,0.05783308297395706,0.14545345306396484,0,0,0
444588510,d4:22:cd:00:30:92,0.6414437294006348,0.3344324827194214,0.1285647302865982,-0.6783628463745117,0.4061451256275177,-0.024029653519392014,0.21040725708007812,0,0,0
444605177,d4:22:cd:00:30:92,0.6431736350059509,0.331189900636673,0.12511496245861053,-0.6789605617523193,0.3936125636100769,-0.04384385421872139,0.19220924377441406,0,0,0
444621844,d4:22:cd:00:30:92,0.6449668407440186,0.32788315415382385,0.1217779591679573,-0.679470956325531,0.147271066904068,-0.04626360535621643,-0.006697654724121094,0,0,0
444638511,d4:22:cd:00:30:92,0.6466442346572876,0.32486024498939514,0.11809480935335159,-0.6799785494804382,0.1111658439040184,-0.1614963859319687,-0.060019493103027344,0,0,0
444655178,d4:22:cd:00:30:92,0.6484031677246094,0.32178810238838196,0.11452856659889221,-0.680374264717102,0.25209829211235046,-0.22589582204818726,0.08161449432373047,0,0,0
444671845,d4:22:cd:00:30:92,0.6503261923789978,0.31849727034568787,0.11130793392658234,-0.6806217432022095,0.1934809684753418,-0.19246074557304382,0.012784004211425781,0,0,0
444688512,d4:22:cd:00:30:92,0.6522035598754883,0.31527823209762573,0.10814383625984192,-0.6808342337608337,0.15567761659622192,-0.11573299765586853,-0.09558773040771484,0,0,0
444705179,d4:22:cd:00:30:92,0.6539409756660461,0.3121992349624634,0.1050354391336441,-0.6810730695724487,0.07111097872257233,-0.1276741772890091,-0.13621807098388672,0,0,0
444721846,d4:22:cd:00:30:92,0.6555164456367493,0.30931785702705383,0.10205025225877762,-0.6813270449638367,0.1352599859237671,-0.15851494669914246,-0.23023414611816406,0,0,0
444738513,d4:22:cd:00:30:92,0.6569285988807678,0.3066270649433136,0.09895917773246765,-0.6816390156745911,-0.059699807316064835,-0.13794739544391632,-0.06679630279541016,0,0,0
444755180,d4:22:cd:00:30:92,0.658183753490448,0.30414795875549316,0.09559380263090134,-0.6820193529129028,-0.03757789358496666,-0.14750021696090698,-0.040317535400390625,0,0,0
444771847,d4:22:cd:00:30:92,0.6593291759490967,0.3017424941062927,0.09210724383592606,-0.6824608445167542,-0.036307163536548615,-0.09245322644710541,-0.005093574523925781,0,0,0
444788514,d4:22:cd:00:30:92,0.6604735255241394,0.29924193024635315,0.08866275101900101,-0.6829114556312561,0.0987008661031723,-0.1252119541168213,-0.049129486083984375,0,0,0
444805181,d4:22:cd:00:30:92,0.6616354584693909,0.29649853706359863,0.08550217002630234,-0.6833860874176025,0.13522741198539734,-0.13228167593479156,0.07971572875976562,0,0,0
444821848,d4:22:cd:00:30:92,0.6627559065818787,0.2937051057815552,0.08236489444971085,-0.6838918328285217,-0.02064516581594944,-0.10944915562868118,0.054322242736816406,0,0,0
444838515,d4:22:cd:00:30:92,0.6636888980865479,0.29127180576324463,0.07862689346075058,-0.6844673156738281,-0.12268570065498352,-0.04811384528875351,0.16558265686035156,0,0,0
444855182,d4:22:cd:00:30:92,0.6646538376808167,0.2890053689479828,0.07436541467905045,-0.6849677562713623,0.05810660868883133,-0.03009043075144291,0.3551759719848633,0,0,0
444871849,d4:22:cd:00:30:92,0.6659607291221619,0.28617051243782043,0.07041040062904358,-0.6853066682815552,0.2906000316143036,-0.11668158322572708,0.3570432662963867,0,0,0
444888516,d4:22:cd:00:30:92,0.6676098704338074,0.28268948197364807,0.06691345572471619,-0.6854971647262573,0.18336880207061768,-0.11359856277704239,0.25150203704833984,0,0,0
444905183,d4:22:cd:00:30:92,0.6693090200424194,0.27903077006340027,0.06341087073087692,-0.6856722831726074,0.05368007346987724,-0.10947486013174057,0.1424713134765625,0,0,0
444921850,d4:22:cd:00:30:92,0.6709716320037842,0.2754807770252228,0.05968720465898514,-0.6858168840408325,-0.010968339629471302,-0.14791148900985718,0.1451263427734375,0,0,0
444938517,d4:22:cd:00:30:92,0.6724672913551331,0.27222394943237305,0.055582255125045776,-0.685997486114502,-0.03142379969358444,-0.12900742888450623,0.16863632202148438,0,0,0
444955184,d4:22:cd:00:30:92,0.6739881038665771,0.26893237233161926,0.05136896297335625,-0.6861317157745361,0.10733212530612946,-0.19018270075321198,0.24052715301513672,0,0,0
444971851,d4:22:cd:00:30:92,0.6756788492202759,0.26527106761932373,0.0475115031003952,-0.6861720085144043,0.23498737812042236,-0.2341424524784088,0.16383838653564453,0,0,0
444988518,d4:22:cd:00:30:92,0.677524209022522,0.26127010583877563,0.044068533927202225,-0.6861172914505005,0.0655122920870781,-0.23365150392055511,0.0022068023681640625,0,0,0
445005185,d4:22:cd:00:30:92,0.6792991161346436,0.25744277238845825,0.04047507047653198,-0.6860305070877075,-0.06492386758327484,-0.20807647705078125,-0.009369850158691406,0,0,0
445021852,d4:22:cd:00:30:92,0.6809132099151611,0.2538819909095764,0.03650173544883728,-0.6859802603721619,-0.04473162069916725,-0.16986313462257385,0.01797962188720703,0,0,0
445038519,d4:22:cd:00:30:92,0.6824668645858765,0.25046002864837646,0.032514408230781555,-0.685894787311554,0.07459292560815811,-0.23798005282878876,-0.038043975830078125,0,0,0
445055186,d4:22:cd:00:30:92,0.6840451955795288,0.24700692296028137,0.02880854718387127,-0.6857404112815857,0.1546674519777298,-0.23315563797950745,0.026720046997070312,0,0,0
445071853,d4:22:cd:00:30:92,0.6856419444084167,0.24337269365787506,0.025238148868083954,-0.6855858564376831,0.050943825393915176,-0.16421820223331451,0.021124839782714844,0,0,0
445088520,d4:22:cd:00:30:92,0.6871849298477173,0.23967398703098297,0.02168341539800167,-0.6854657530784607,0.07532315701246262,-0.10074734687805176,0.04141521453857422,0,0,0
445105187,d4:22:cd:00:30:92,0.6887571811676025,0.23593735694885254,0.018270067870616913,-0.6852833032608032,0.03457876667380333,-0.14959074556827545,-0.13800525665283203,0,0,0
445121854,d4:22:cd:00:30:92,0.6902630925178528,0.23244188725948334,0.014929641038179398,-0.6850435137748718,0.048726242035627365,-0.1539609730243683,-0.19492530822753906,0,0,0
445138521,d4:22:cd:00:30:92,0.6916854977607727,0.22915099561214447,0.011526701040565968,-0.6847832798957825,0.022628353908658028,-0.1049860492348671,-0.08521175384521484,0,0,0
445155188,d4:22:cd:00:30:92,0.6930301785469055,0.22589987516403198,0.007975481450557709,-0.6845544576644897,0.0916726365685463,-0.02872733771800995,0.010798454284667969,0,0,0
445171855,d4:22:cd:00:30:92,0.6943766474723816,0.22246329486370087,0.00443134643137455,-0.6843475103378296,0.09507786482572556,-0.02640269137918949,0.06419658660888672,0,0,0
445188522,d4:22:cd:00:30:92,0.6956896185874939,0.21881690621376038,0.0010718138655647635,-0.6842031478881836,0.049559205770492554,-0.042440418154001236,0.007395744323730469,0,0,0
445205189,d4:22:cd:00:30:92,0.6969130039215088,0.2153913825750351,-0.002394943032413721,-0.6840418577194214,-0.042509544640779495,-0.10775481164455414,-0.017729759216308594,0,0,0
445221856,d4:22:cd:00:30:92,0.6980518698692322,0.2123636156320572,-0.006229044869542122,-0.6838030815124512,-0.0741395652294159,-0.12163865566253662,0.014456748962402344,0,0,0
445238523,d4:22:cd:00:30:92,0.6992504000663757,0.20926108956336975,-0.010158464312553406,-0.6834877729415894,0.15690135955810547,-0.12194263190031052,0.2988929748535156,0,0,0
445255190,d4:22:cd:00:30:92,0.7006738185882568,0.20543864369392395,-0.013802439905703068,-0.6831257343292236,0.25457337498664856,-0.01573866419494152,0.37520503997802734,0,0,0
445271857,d4:22:cd:00:30:92,0.702170193195343,0.20119763910770416,-0.017209604382514954,-0.6827740669250488,0.05531942844390869,-0.10893328487873077,0.0028505325317382812,0,0,0
445288524,d4:22:cd:00:30:92,0.7035378813743591,0.1972591131925583,-0.020707298070192337,-0.6824182271957397,0.03258408233523369,-0.23568938672542572,-0.0475616455078125,0,0,0
445305191,d4:22:cd:00:30:92,0.7048301696777344,0.19370195269584656,-0.02449721097946167,-0.6819778680801392,-0.08974837511777878,-0.3094029426574707,0.057399749755859375,0,0,0
445321858,d4:22:cd:00:30:92,0.7060906887054443,0.19023659825325012,-0.028512433171272278,-0.6814931631088257,0.18180684745311737,-0.27580100297927856,0.29659461975097656,0,0,0
445338525,d4:22:cd:00:30:92,0.7074664831161499,0.18613038957118988,-0.03218506649136543,-0.6810367107391357,0.21050481498241425,-0.23983432352542877,0.28591156005859375,0,0,0
445355192,d4:22:cd:00:30:92,0.7089095115661621,0.1817675083875656,-0.03566627576947212,-0.680540919303894,0.09723170846700668,-0.30555516481399536,0.009332656860351562,0,0,0
445371859,d4:22:cd:00:30:92,0.7102331519126892,0.17766661942005157,-0.03916060924530029,-0.6800514459609985,-0.08280691504478455,-0.37534892559051514,-0.16959762573242188,0,0,0
445388526,d4:22:cd:00:30:92,0.7114412188529968,0.17432156205177307,-0.043056949973106384,-0.6794185042381287,-0.024400070309638977,-0.36010193824768066,-0.10147953033447266,0,0,0
445405193,d4:22:cd:00:30:92,0.7126502394676208,0.17111624777317047,-0.04705936834216118,-0.67870032787323,0.10157672315835953,-0.29896602034568787,0.09534358978271484,0,0,0
445421860,d4:22:cd:00:30:92,0.7139627933502197,0.16732996702194214,-0.05055674538016319,-0.6780131459236145,0.20493793487548828,-0.19454936683177948,0.1795501708984375,0,0,0
445438527,d4:22:cd:00:30:92,0.715325653553009,0.1631617695093155,-0.053610485047101974,-0.6773577332496643,0.008726309053599834,-0.20206017792224884,-0.017058372497558594,0,0,0
445455194,d4:22:cd:00:30:92,0.7166205644607544,0.15914386510849,-0.05684513971209526,-0.6766809225082397,-0.11421478539705276,-0.13052117824554443,-0.06269454956054688,0,0,0
445471861,d4:22:cd:00:30:92,0.7177863717079163,0.15545523166656494,-0.06039860472083092,-0.6759945750236511,-0.09052135050296783,-0.11457408219575882,-0.038661956787109375,0,0,0
445488528,d4:22:cd:00:30:92,0.7188283205032349,0.15189765393733978,-0.06405375897884369,-0.675359308719635,0.02351873181760311,-0.10985315591096878,0.04421520233154297,0,0,0
445505195,d4:22:cd:00:30:92,0.7198898196220398,0.14817120134830475,-0.06763048470020294,-0.6747074127197266,0.055855050683021545,-0.12513595819473267,0.06835460662841797,0,0,0
445521862,d4:22:cd:00:30:92,0.7209203839302063,0.14423751831054688,-0.0711464062333107,-0.6740975975990295,0.10740914940834045,-0.09260711818933487,0.1040496826171875,0,0,0
445538529,d4:22:cd:00:30:92,0.7218930125236511,0.1402524709701538,-0.07454138249158859,-0.6735305786132812,-0.04856433719396591,-0.26374685764312744,-0.07099056243896484,0,0,0
445555196,d4:22:cd:00:30:92,0.7227939367294312,0.1365729719400406,-0.07799766212701797,-0.6729288101196289,-0.004602076020091772,-0.2536347210407257,-0.0014162063598632812,0,0,0
445571863,d4:22:cd:00:30:92,0.7235987782478333,0.1330285370349884,-0.08156963437795639,-0.6723501086235046,-0.09126810729503632,-0.17774079740047455,0.013448715209960938,0,0,0
445588530,d4:22:cd:00:30:92,0.7244217991828918,0.12941469252109528,-0.08513730019330978,-0.6717267632484436,0.08902180194854736,-0.07834084331989288,0.12527084350585938,0,0,0
445605197,d4:22:cd:00:30:92,0.7253022789955139,0.12550580501556396,-0.0884593278169632,-0.6710885763168335,0.0869273766875267,-0.07917337119579315,-0.007533073425292969,0,0,0
445621864,d4:22:cd:00:30:92,0.7262049317359924,0.12153099477291107,-0.09153005480766296,-0.670431911945343,0.035878635942935944,-0.14403298497200012,-0.08439350128173828,0,0,0
445638531,d4:22:cd:00:30:92,0.7270817160606384,0.11776158958673477,-0.09460382163524628,-0.6697271466255188,-0.04338805377483368,-0.11125239729881287,0.024727821350097656,0,0,0
445655198,d4:22:cd:00:30:92,0.7278444766998291,0.11443037539720535,-0.09800795465707779,-0.6689861416816711,-0.11322183161973953,-0.10547447949647903,-0.04691505432128906,0,0,0
445671865,d4:22:cd:00:30:92,0.7286012172698975,0.1111103817820549,-0.10145644098520279,-0.6682077646255493,0.055494245141744614,-0.05122346803545952,0.10349082946777344,0,0,0
445688532,d4:22:cd:00:30:92,0.7294244170188904,0.10737311094999313,-0.10456031560897827,-0.6674416065216064,0.03370765224099159,-0.11238879710435867,0.053650856018066406,0,0,0
445705199,d4:22:cd:00:30:92,0.7302675247192383,0.10350238531827927,-0.10748642683029175,-0.6666659116744995,0.05756670981645584,-0.168220654129982,-0.04162406921386719,0,0,0
445721866,d4:22:cd:00:30:92,0.7310652732849121,0.09982556849718094,-0.11047234386205673,-0.6658636927604675,-0.002470879815518856,-0.1511276662349701,0.023874282836914062,0,0,0
445738533,d4:22:cd:00:30:92,0.7317728400230408,0.09645599871873856,-0.11366336047649384,-0.6650455594062805,0.025999976322054863,-0.11139371991157532,-0.03153514862060547,0,0,0
445755200,d4:22:cd:00:30:92,0.7324110269546509,0.0931575819849968,-0.11700890958309174,-0.6642324924468994,0.010271202772855759,-0.02756730653345585,0.10478782653808594,0,0,0
445771867,d4:22:cd:00:30:92,0.733008861541748,0.08963271230459213,-0.1203247457742691,-0.6634652018547058,0.08371912688016891,-0.07296144217252731,0.17873573303222656,0,0,0
445788534,d4:22:cd:00:30:92,0.7335590124130249,0.0858873724937439,-0.12352295219898224,-0.6627644300460815,0.011241528205573559,-0.15454378724098206,0.036922454833984375,0,0,0
445805201,d4:22:cd:00:30:92,0.7340479493141174,0.08231472223997116,-0.1268804669380188,-0.6620417833328247,0.007117937784641981,-0.08858930319547653,-0.011614799499511719,0,0,0
445821868,d4:22:cd:00:30:92,0.7344891428947449,0.0789470225572586,-0.13042151927947998,-0.6612740755081177,0.06164945662021637,-0.08722782880067825,0.045180320739746094,0,0,0
445838535,d4:22:cd:00:30:92,0.734952449798584,0.0753541961312294,-0.1339152306318283,-0.6604797840118408,0.12381589412689209,-0.016438372433185577,0.2516307830810547,0,0,0
445855202,d4:22:cd:00:30:92,0.7354621887207031,0.07126197218894958,-0.13715025782585144,-0.6597020030021667,0.17569157481193542,0.03227158263325691,0.30834197998046875,0,0,0
445871869,d4:22:cd:00:30:92,0.7359662055969238,0.06699743866920471,-0.14038202166557312,-0.6589066982269287,-0.02638760395348072,-0.11731398850679398,0.1501455307006836,0,0,0
445888536,d4:22:cd:00:30:92,0.7363667488098145,0.06311945617198944,-0.1440839022397995,-0.6580424904823303,-0.016100643202662468,-0.09775805473327637,0.20364856719970703,0,0,0
445905203,d4:22:cd:00:30:92,0.7367368340492249,0.05929623544216156,-0.1480313092470169,-0.6571070551872253,0.0739445686340332,-0.14675511419773102,0.12448310852050781,0,0,0
445921870,d4:22:cd:00:30:92,0.7371075749397278,0.05541924014687538,-0.15183031558990479,-0.6561622023582458,0.17426210641860962,-0.2799651026725769,0.08001041412353516,0,0,0
445938537,d4:22:cd:00:30:92,0.7375108003616333,0.051084280014038086,-0.15526627004146576,-0.6552563309669495,0.1226763129234314,-0.20469632744789124,0.061112403869628906,0,0,0
445955204,d4:22:cd:00:30:92,0.7379075288772583,0.04673624411225319,-0.15869559347629547,-0.654312014579773,0.00142210116609931,-0.21034404635429382,0.17712783813476562,0,0,0
445971871,d4:22:cd:00:30:92,0.7382782697677612,0.042510341852903366,-0.1622464656829834,-0.6533103585243225,0.032843440771102905,-0.18169085681438446,0.11798095703125,0,0,0
445988538,d4:22:cd:00:30:92,0.738603413105011,0.038575559854507446,-0.1660313904285431,-0.6522350907325745,-0.0060554128140211105,-0.28129643201828003,-0.02444934844970703,0,0,0
446005205,d4:22:cd:00:30:92,0.7388964295387268,0.03470681980252266,-0.1696455478668213,-0.6511896252632141,0.14796032011508942,-0.28644871711730957,0.024901390075683594,0,0,0
446021872,d4:22:cd:00:30:92,0.739148736000061,0.03071693517267704,-0.17306628823280334,-0.6502030491828918,-0.04722459986805916,-0.23261749744415283,-0.09016799926757812,0,0,0
446038539,d4:22:cd:00:30:92,0.7393770813941956,0.026883745566010475,-0.17665231227874756,-0.6491478085517883,0.0758025199174881,-0.11356902867555618,0.1010141372680664,0,0,0
446055206,d4:22:cd:00:30:92,0.7395324110984802,0.02297094278037548,-0.18028737604618073,-0.6481211185455322,0.056878235191106796,-0.11558610945940018,0.15617847442626953,0,0,0
446071873,d4:22:cd:00:30:92,0.7396171689033508,0.019010068848729134,-0.18393878638744354,-0.6471257209777832,0.040497418493032455,-0.21577905118465424,0.03666400909423828,0,0,0
446088540,d4:22:cd:00:30:92,0.7396390438079834,0.015145688317716122,-0.18767733871936798,-0.6461284756660461,0.04073423147201538,-0.2240561693906784,0.12359142303466797,0,0,0
446105207,d4:22:cd:00:30:92,0.7396854758262634,0.01109993550926447,-0.1911666840314865,-0.6451338529586792,0.07352078706026077,-0.270163357257843,0.09910964965820312,0,0,0
446121874,d4:22:cd:00:30:92,0.7397923469543457,0.007266508415341377,-0.1947450041770935,-0.6439945697784424,0.028492538258433342,-0.25369808077812195,-0.1789703369140625,0,0,0
446138541,d4:22:cd:00:30:92,0.7399280071258545,0.003370188409462571,-0.19812390208244324,-0.6428391933441162,0.12065140157938004,-0.10280998051166534,0.17888355255126953,0,0,0
446155208,d4:22:cd:00:30:92,0.7400582432746887,-0.0006595292943529785,-0.20147795975208282,-0.6416541934013367,0.059420473873615265,-0.09801309555768967,0.2087879180908203,0,0,0
446171875,d4:22:cd:00:30:92,0.7401483654975891,-0.004624241963028908,-0.20490656793117523,-0.6404469609260559,0.0723876878619194,-0.30984488129615784,0.10832691192626953,0,0,0
446188542,d4:22:cd:00:30:92,0.7402149438858032,-0.008509975858032703,-0.208245187997818,-0.639252245426178,0.01144676934927702,-0.3692885935306549,0.018484115600585938,0,0,0
446205209,d4:22:cd:00:30:92,0.7402711510658264,-0.012135026976466179,-0.21150867640972137,-0.6380561590194702,0.07799115777015686,-0.41324958205223083,-0.3079824447631836,0,0,0
446221876,d4:22:cd:00:30:92,0.7403390407562256,-0.01558658853173256,-0.2146572768688202,-0.636849582195282,0.12441692501306534,-0.2037135660648346,-0.07897567749023438,0,0,0
446238543,d4:22:cd:00:30:92,0.7404096722602844,-0.019068581983447075,-0.217768594622612,-0.635615348815918,0.18439975380897522,-0.22486314177513123,0.06706809997558594,0,0,0
446255210,d4:22:cd:00:30:92,0.7404893040657043,-0.022467132657766342,-0.22090758383274078,-0.6343271136283875,0.1784154176712036,-0.2466624677181244,0.12246036529541016,0,0,0
446271877,d4:22:cd:00:30:92,0.7405568361282349,-0.025929901748895645,-0.22388648986816406,-0.6330704092979431,0.1565709412097931,-0.34442463517189026,0.05802631378173828,0,0,0
446288544,d4:22:cd:00:30:92,0.7406859993934631,-0.029431195929646492,-0.22666485607624054,-0.6317761540412903,0.13879942893981934,-0.318454384803772,-0.0749368667602539,0,0,0
446305211,d4:22:cd:00:30:92,0.7408340573310852,-0.03271227702498436,-0.22938509285449982,-0.6304581165313721,0.05813627690076828,-0.27594491839408875,-0.2727479934692383,0,0,0
446321878,d4:22:cd:00:30:92,0.7410057187080383,-0.03591158613562584,-0.23202037811279297,-0.6291164755821228,0.17687876522541046,0.0019756590481847525,0.006232261657714844,0,0,0
446338545,d4:22:cd:00:30:92,0.7411473393440247,-0.03910430148243904,-0.2347022145986557,-0.6277629733085632,0.08404389023780823,0.0026466448325663805,0.1416015625,0,0,0
446355212,d4:22:cd:00:30:92,0.7412809729576111,-0.04207693040370941,-0.23766590654850006,-0.6262962222099304,0.1284780353307724,-0.11257395148277283,0.22826385498046875,0,0,0
446371879,d4:22:cd:00:30:92,0.7414137721061707,-0.04493122547864914,-0.24074648320674896,-0.6247624754905701,0.13649813830852509,-0.33187004923820496,0.0659341812133789,0,0,0
446388546,d4:22:cd:00:30:92,0.7415181994438171,-0.04793236404657364,-0.24369622766971588,-0.6232700943946838,0.19194555282592773,-0.3292366862297058,0.07558059692382812,0,0,0
446405213,d4:22:cd:00:30:92,0.7415775656700134,-0.05129535496234894,-0.24626833200454712,-0.6219192743301392,0.07005052268505096,-0.40030547976493835,-0.09369277954101562,0,0,0
446421880,d4:22:cd:00:30:92,0.7416703701019287,-0.05432313680648804,-0.24885430932044983,-0.6205206513404846,-0.022837994620203972,-0.48111197352409363,-0.17975997924804688,0,0,0
446438547,d4:22:cd:00:30:92,0.7418249249458313,-0.057046398520469666,-0.2514481842517853,-0.6190439462661743,0.030052099376916885,-0.3008610010147095,0.07335758209228516,0,0,0
446455214,d4:22:cd:00:30:92,0.741929292678833,-0.05961057171225548,-0.2540269196033478,-0.6176228523254395,-0.002784747863188386,-0.4018840789794922,-0.1368093490600586,0,0,0
446471881,d4:22:cd:00:30:92,0.7420054078102112,-0.06189332529902458,-0.2566350996494293,-0.6162272095680237,0.036926575005054474,-0.17233911156654358,0.048913002014160156,0,0,0
446488548,d4:22:cd:00:30:92,0.7420027256011963,-0.06440749019384384,-0.2591286301612854,-0.6149276494979858,0.03941204026341438,-0.03046311065554619,0.17530441284179688,0,0,0
446505215,d4:22:cd:00:30:92,0.7420018315315247,-0.06723833829164505,-0.2615574300289154,-0.6135960817337036,0.1400976926088333,0.030607976019382477,0.22583580017089844,0,0,0
446521882,d4:22:cd:00:30:92,0.7419137358665466,-0.07038925588130951,-0.2639862596988678,-0.6123077869415283,0.09029074013233185,0.04010794684290886,0.17787551879882812,0,0,0
446538549,d4:22:cd:00:30:92,0.7418115735054016,-0.07355529814958572,-0.2666318118572235,-0.6109115481376648,0.085921511054039,0.038717083632946014,0.1697988510131836,0,0,0
446555216,d4:22:cd:00:30:92,0.7417217493057251,-0.07659614831209183,-0.269623339176178,-0.6093317270278931,0.007488354574888945,-0.14633281528949738,0.12396240234375,0,0,0
446571883,d4:22:cd:00:30:92,0.7416499853134155,-0.07964770495891571,-0.27273765206336975,-0.607639491558075,0.186629518866539,0.027218010276556015,0.37922096252441406,0,0,0
446588550,d4:22:cd:00:30:92,0.7415562868118286,-0.08306317776441574,-0.2758423686027527,-0.6058927178382874,0.21953152120113373,-0.06227372586727142,0.32016563415527344,0,0,0
446605217,d4:22:cd:00:30:92,0.7414311766624451,-0.08664625883102417,-0.2789228558540344,-0.6041310429573059,0.2298453003168106,-0.2016676366329193,0.2071666717529297,0,0,0
446621884,d4:22:cd:00:30:92,0.7412886619567871,-0.0904616191983223,-0.28187260031700134,-0.6023750305175781,0.10400303453207016,-0.1933680921792984,0.11372184753417969,0,0,0
446638551,d4:22:cd:00:30:92,0.7412295937538147,-0.09382891654968262,-0.28501084446907043,-0.6004528999328613,0.10813623666763306,-0.41410982608795166,-0.03530120849609375,0,0,0
446655218,d4:22:cd:00:30:92,0.7411803603172302,-0.09726325422525406,-0.288016676902771,-0.5985298752784729,0.17077529430389404,-0.1925472468137741,0.14305400848388672,0,0,0
446671885,d4:22:cd:00:30:92,0.7411754727363586,-0.10070785135030746,-0.2910082936286926,-0.5965157747268677,0.07719846814870834,-0.23030684888362885,0.16294479370117188,0,0,0
446688552,d4:22:cd:00:30:92,0.741206169128418,-0.1040206328034401,-0.29415711760520935,-0.5943608283996582,-0.012127142399549484,-0.30115821957588196,-0.05076789855957031,0,0,0
446705219,d4:22:cd:00:30:92,0.741176426410675,-0.10740886628627777,-0.2971245348453522,-0.5923157930374146,0.24730300903320312,-0.10651817172765732,0.11312484741210938,0,0,0
446721886,d4:22:cd:00:30:92,0.7410858869552612,-0.11138726025819778,-0.2996942698955536,-0.5903966426849365,0.19699649512767792,-0.11169830709695816,0.08863639831542969,0,0,0
446738553,d4:22:cd:00:30:92,0.7409147024154663,-0.11525586992502213,-0.3023425042629242,-0.5885156989097595,-0.06072601303458214,-0.2640114426612854,0.0007295608520507812,0,0,0
446755220,d4:22:cd:00:30:92,0.7407355308532715,-0.11863381415605545,-0.3052583336830139,-0.586561381816864,-0.008903861977159977,-0.2606929838657379,0.03750801086425781,0,0,0
446771887,d4:22:cd:00:30:92,0.7404987812042236,-0.12195000052452087,-0.30832555890083313,-0.5845726728439331,0.11367913335561752,0.03783046081662178,0.10220623016357422,0,0,0
446788554,d4:22:cd:00:30:92,0.7401016354560852,-0.12564033269882202,-0.311237633228302,-0.5827481746673584,0.04901370778679848,-0.12475325167179108,0.046545982360839844,0,0,0
446805221,d4:22:cd:00:30:92,0.73960280418396,-0.12938563525676727,-0.3141230344772339,-0.5810112357139587,0.018465746194124222,-0.12135613709688187,0.06183147430419922,0,0,0
446821888,d4:22:cd:00:30:92,0.7391932606697083,-0.13287654519081116,-0.31713831424713135,-0.5791031122207642,-0.05007025599479675,-0.29157912731170654,0.06071186065673828,0,0,0
446838555,d4:22:cd:00:30:92,0.7388267517089844,-0.13597863912582397,-0.3203440308570862,-0.5770827531814575,0.02501758188009262,-0.3448587954044342,-0.013768196105957031,0,0,0
446855222,d4:22:cd:00:30:92,0.7384138107299805,-0.13936562836170197,-0.3231939375400543,-0.5752113461494446,0.133977472782135,-0.14577637612819672,0.030943870544433594,0,0,0
446871889,d4:22:cd:00:30:92,0.7379662990570068,-0.14285807311534882,-0.325717955827713,-0.5735027194023132,0.0852869525551796,-0.37915822863578796,-0.07659053802490234,0,0,0
446888556,d4:22:cd:00:30:92,0.7375325560569763,-0.14639098942279816,-0.3281058073043823,-0.5718060731887817,0.0494721345603466,-0.10191106796264648,-0.027520179748535156,0,0,0
446905223,d4:22:cd:00:30:92,0.7371653318405151,-0.14938709139823914,-0.33073997497558594,-0.5699843764305115,-0.048224933445453644,-0.39051926136016846,-0.0026578903198242188,0,0,0
446921890,d4:22:cd:00:30:92,0.7368616461753845,-0.15203148126602173,-0.33337366580963135,-0.5681405067443848,0.09263204038143158,-0.3104158043861389,-0.06299304962158203,0,0,0
446938557,d4:22:cd:00:30:92,0.736513078212738,-0.154671773314476,-0.33573752641677856,-0.5664854049682617,0.048804499208927155,-0.41498756408691406,-0.1812915802001953,0,0,0
446955224,d4:22:cd:00:30:92,0.736141562461853,-0.15738952159881592,-0.33785757422447205,-0.5649570822715759,0.11693616956472397,-0.09810978174209595,-0.09336662292480469,0,0,0
446971891,d4:22:cd:00:30:92,0.7357416152954102,-0.1601799726486206,-0.33987465500831604,-0.5634820461273193,-0.0007541326922364533,-0.17390649020671844,-0.07522010803222656,0,0,0
446988558,d4:22:cd:00:30:92,0.7353400588035583,-0.1627771258354187,-0.3418377637863159,-0.56207275390625,0.18851596117019653,-0.2832493782043457,-0.0763692855834961,0,0,0
447005225,d4:22:cd:00:30:92,0.7348853945732117,-0.16518574953079224,-0.34373989701271057,-0.560803234577179,0.01608823984861374,-0.3258870244026184,0.02844715118408203,0,0,0
447021892,d4:22:cd:00:30:92,0.7344557642936707,-0.16731838881969452,-0.3458431661128998,-0.5594390630722046,0.03787359967827797,-0.2003021389245987,-0.010416984558105469,0,0,0
447038559,d4:22:cd:00:30:92,0.7339780926704407,-0.16928206384181976,-0.3480556607246399,-0.5581013560295105,0.12159574031829834,-0.14472363889217377,0.05507946014404297,0,0,0
447055226,d4:22:cd:00:30:92,0.7333829998970032,-0.17170721292495728,-0.35002538561820984,-0.5569095015525818,0.14210663735866547,-0.09672567993402481,0.10864925384521484,0,0,0
447071893,d4:22:cd:00:30:92,0.7327389121055603,-0.17429231107234955,-0.3519681990146637,-0.5557289123535156,0.023798765614628792,-0.2586851716041565,0.15496253967285156,0,0,0
447088560,d4:22:cd:00:30:92,0.7321020364761353,-0.1766607165336609,-0.3540850877761841,-0.5544740557670593,0.02441946044564247,-0.41503405570983887,0.1328277587890625,0,0,0
447105227,d4:22:cd:00:30:92,0.7315660119056702,-0.17871320247650146,-0.3561602532863617,-0.5531930327415466,0.018353095278143883,-0.6889524459838867,0.0800027847290039,0,0,0
447121894,d4:22:cd:00:30:92,0.7311229109764099,-0.18068981170654297,-0.3580121397972107,-0.5519402027130127,0.04924727976322174,-0.6392116546630859,-0.021674156188964844,0,0,0
447138561,d4:22:cd:00:30:92,0.7307215332984924,-0.18251748383045197,-0.3596034348011017,-0.5508348941802979,0.1940792053937912,-0.4332966208457947,0.12567424774169922,0,0,0
447155228,d4:22:cd:00:30:92,0.7303802371025085,-0.1846427023410797,-0.36089128255844116,-0.5497357845306396,0.11959508061408997,-0.1568349003791809,0.19432449340820312,0,0,0
447171895,d4:22:cd:00:30:92,0.7301748991012573,-0.18660953640937805,-0.36231762170791626,-0.5484046339988708,0.0257469043135643,-0.3241269886493683,0.09735584259033203,0,0,0
447188562,d4:22:cd:00:30:92,0.7300006747245789,-0.1886037141084671,-0.36365965008735657,-0.547064483165741,0.1711389571428299,-0.2570972442626953,0.18157196044921875,0,0,0
447205229,d4:22:cd:00:30:92,0.7298537492752075,-0.19072112441062927,-0.36491453647613525,-0.5456891059875488,0.0228895153850317,-0.2302679568529129,0.12935924530029297,0,0,0
447221896,d4:22:cd:00:30:92,0.729739785194397,-0.19266176223754883,-0.3662889897823334,-0.5442371368408203,-0.0020898461807519197,-0.32482075691223145,0.13965702056884766,0,0,0
447238563,d4:22:cd:00:30:92,0.7295388579368591,-0.19465330243110657,-0.36757805943489075,-0.5429270267486572,0.16936179995536804,-0.238042414188385,0.11959362030029297,0,0,0
447255230,d4:22:cd:00:30:92,0.7291610240936279,-0.197013258934021,-0.36874499917030334,-0.5417909622192383,0.04758724942803383,-0.04546264559030533,0.13197994232177734,0,0,0
447271897,d4:22:cd:00:30:92,0.728702187538147,-0.19932924211025238,-0.3701390027999878,-0.5406089425086975,-0.12452688813209534,-0.20954562723636627,0.12473011016845703,0,0,0
447288564,d4:22:cd:00:30:92,0.7281944155693054,-0.20151644945144653,-0.3717699944972992,-0.5393617749214172,-0.022405385971069336,-0.05443680286407471,0.123291015625,0,0,0
447305231,d4:22:cd:00:30:92,0.7276519536972046,-0.20352748036384583,-0.37360456585884094,-0.5380697846412659,-0.03993796557188034,-0.2123633474111557,0.1530618667602539,0,0,0
447321898,d4:22:cd:00:30:92,0.727074921131134,-0.20547236502170563,-0.3755435645580292,-0.5367591977119446,0.11596589535474777,-0.21099165081977844,0.16027545928955078,0,0,0
447338565,d4:22:cd:00:30:92,0.7263526320457458,-0.20783397555351257,-0.3773781359195709,-0.5355397462844849,0.23143917322158813,0.11753987520933151,0.2915506362915039,0,0,0
447355232,d4:22:cd:00:30:92,0.7255132794380188,-0.2105896770954132,-0.3791058361530304,-0.5343794822692871,0.24652831256389618,-0.06405400484800339,0.22147846221923828,0,0,0
447371899,d4:22:cd:00:30:92,0.7247335910797119,-0.21344402432441711,-0.3808971047401428,-0.5330293774604797,0.06561222672462463,-0.007964995689690113,0.1932535171508789,0,0,0
447388566,d4:22:cd:00:30:92,0.7240467667579651,-0.21622368693351746,-0.38289588689804077,-0.5314080119132996,0.08123399317264557,-0.1233702078461647,0.1830902099609375,0,0,0
447405233,d4:22:cd:00:30:92,0.7234653830528259,-0.21879053115844727,-0.38512617349624634,-0.5295343995094299,0.06017907336354256,-0.15927186608314514,0.1501617431640625,0,0,0
447421900,d4:22:cd:00:30:92,0.7229712605476379,-0.22135058045387268,-0.3873824179172516,-0.5274954438209534,0.20372065901756287,-0.11307810992002487,0.18410015106201172,0,0,0
447438567,d4:22:cd:00:30:92,0.7225289940834045,-0.22406554222106934,-0.38954752683639526,-0.5253563523292542,0.23565015196800232,-0.15775544941425323,0.1882305145263672,0,0,0
447455234,d4:22:cd:00:30:92,0.7221024632453918,-0.22701957821846008,-0.39158082008361816,-0.5231585502624512,0.18028196692466736,-0.14911209046840668,0.1285400390625,0,0,0
447471901,d4:22:cd:00:30:92,0.721723735332489,-0.23000603914260864,-0.3935564458370209,-0.5208892226219177,0.05618109926581383,-0.2725130319595337,0.10450077056884766,0,0,0
447488568,d4:22:cd:00:30:92,0.7214009761810303,-0.23292678594589233,-0.39540696144104004,-0.5186319351196289,0.08159451931715012,-0.35232022404670715,0.06149101257324219,0,0,0
447505235,d4:22:cd:00:30:92,0.7211136221885681,-0.23559445142745972,-0.39735668897628784,-0.5163314938545227,-0.10694558173418045,-0.34258970618247986,0.007747650146484375,0,0,0
447521902,d4:22:cd:00:30:92,0.720866858959198,-0.23793232440948486,-0.39945465326309204,-0.5139797329902649,-0.006592514459043741,-0.3042258322238922,0.04902172088623047,0,0,0
447538569,d4:22:cd:00:30:92,0.7204437255859375,-0.2405461072921753,-0.4013669192790985,-0.5118622183799744,0.09916464984416962,-0.06738658249378204,0.09235382080078125,0,0,0
447555236,d4:22:cd:00:30:92,0.7197873592376709,-0.24356238543987274,-0.40313026309013367,-0.5099700093269348,-0.018275760114192963,-0.12931297719478607,0.03932476043701172,0,0,0
447571903,d4:22:cd:00:30:92,0.7191362977027893,-0.24642068147659302,-0.4050206243991852,-0.5080139636993408,0.003910582512617111,-0.1625928282737732,0.1084442138671875,0,0,0
447588570,d4:22:cd:00:30:92,0.718494713306427,-0.24903659522533417,-0.40706270933151245,-0.5060099363327026,0.036495864391326904,-0.3230287432670593,0.11464977264404297,0,0,0
447605237,d4:22:cd:00:30:92,0.7178133726119995,-0.25155723094940186,-0.4090869426727295,-0.5040941834449768,0.14764192700386047,-0.3387870788574219,0.049393653869628906,0,0,0
447621904,d4:22:cd:00:30:92,0.7170769572257996,-0.254031777381897,-0.4109969735145569,-0.5023444890975952,0.05329331010580063,-0.38547179102897644,0.058605194091796875,0,0,0
447638571,d4:22:cd:00:30:92,0.716330349445343,-0.2563594877719879,-0.41297903656959534,-0.5005986094474792,-0.028573226183652878,-0.3776213526725769,-0.021707534790039062,0,0,0
447655238,d4:22:cd:00:30:92,0.7156464457511902,-0.2584335207939148,-0.41493040323257446,-0.4988939166069031,0.15810523927211761,-0.40433740615844727,0.02758502960205078,0,0,0
447671905,d4:22:cd:00:30:92,0.7149379253387451,-0.260654091835022,-0.4165280759334564,-0.4974210262298584,0.1374468356370926,-0.5150228142738342,0.010287284851074219,0,0,0
447688572,d4:22:cd:00:30:92,0.7143168449401855,-0.26274383068084717,-0.4179352819919586,-0.4960315227508545,0.17476455867290497,-0.4309266209602356,0.0631866455078125,0,0,0
447705239,d4:22:cd:00:30:92,0.7138592600822449,-0.264523983001709,-0.4192465543746948,-0.49463561177253723,0.14805744588375092,-0.5315766334533691,0.07570457458496094,0,0,0
447721906,d4:22:cd:00:30:92,0.7135684490203857,-0.26609373092651367,-0.42038747668266296,-0.49324288964271545,0.13326624035835266,-0.44571343064308167,-0.02303791046142578,0,0,0
447738573,d4:22:cd:00:30:92,0.7134101986885071,-0.2674793303012848,-0.4214094877243042,-0.49184828996658325,0.020341914147138596,-0.5126026272773743,-0.018980026245117188,0,0,0
447755240,d4:22:cd:00:30:92,0.7133277058601379,-0.26876839995384216,-0.42238131165504456,-0.49042969942092896,0.11050458252429962,-0.17639285326004028,0.03731536865234375,0,0,0
447771907,d4:22:cd:00:30:92,0.7132392525672913,-0.2700479328632355,-0.4233607053756714,-0.4890090525150299,0.05710107833147049,-0.25476667284965515,0.0800771713256836,0,0,0
447788574,d4:22:cd:00:30:92,0.7131562829017639,-0.27127978205680847,-0.42431873083114624,-0.4876157343387604,0.13618890941143036,-0.2358376830816269,0.060321807861328125,0,0,0
447805241,d4:22:cd:00:30:92,0.7130113244056702,-0.2725616991519928,-0.425260454416275,-0.48629075288772583,0.09406252205371857,-0.11912078410387039,0.1731119155883789,0,0,0
447821908,d4:22:cd:00:30:92,0.7128047943115234,-0.2739976644515991,-0.42635613679885864,-0.4848248362541199,0.1753617823123932,0.08343984186649323,0.18117237091064453,0,0,0
447838575,d4:22:cd:00:30:92,0.7125727534294128,-0.275429904460907,-0.42761701345443726,-0.4832414984703064,0.12748686969280243,-0.2564227879047394,0.16049671173095703,0,0,0
447855242,d4:22:cd:00:30:92,0.7123982906341553,-0.27680468559265137,-0.428943932056427,-0.48153409361839294,0.15979991853237152,-0.1670464277267456,0.16761016845703125,0,0,0
447871909,d4:22:cd:00:30:92,0.712234616279602,-0.27818572521209717,-0.43038150668144226,-0.47969430685043335,0.16300174593925476,-0.15058939158916473,0.24523544311523438,0,0,0
447888576,d4:22:cd:00:30:92,0.7120234370231628,-0.2797257900238037,-0.4318787455558777,-0.4777626395225525,0.19468536972999573,-0.20055973529815674,0.19959163665771484,0,0,0
447905243,d4:22:cd:00:30:92,0.7117428183555603,-0.2813870310783386,-0.4332716464996338,-0.4759402871131897,0.173036128282547,-0.39593666791915894,0.16649723052978516,0,0,0
447921910,d4:22:cd:00:30:92,0.7114196419715881,-0.2830803096294403,-0.4346030354499817,-0.474202424287796,0.09461057186126709,-0.2753453850746155,0.18636035919189453,0,0,0
447938577,d4:22:cd:00:30:92,0.7111419439315796,-0.28463801741600037,-0.4361221194267273,-0.4722880423069,0.018678978085517883,-0.270358145236969,0.17282676696777344,0,0,0
447955244,d4:22:cd:00:30:92,0.7109113931655884,-0.2861122190952301,-0.43764278292655945,-0.4703335762023926,0.100951187312603,-0.2824859619140625,0.16225624084472656,0,0,0
447971911,d4:22:cd:00:30:92,0.7106221318244934,-0.28771230578422546,-0.43894198536872864,-0.4685806930065155,0.04801170155405998,-0.3027185797691345,0.15691757202148438,0,0,0
447988578,d4:22:cd:00:30:92,0.7104300856590271,-0.2890961766242981,-0.440281480550766,-0.46675997972488403,-0.06472108513116837,-0.41218069195747375,0.12867069244384766,0,0,0
448005245,d4:22:cd:00:30:92,0.7103059887886047,-0.2902548909187317,-0.4416413903236389,-0.46494126319885254,0.04559507966041565,-0.3020321726799011,0.11644744873046875,0,0,0
448021912,d4:22:cd:00:30:92,0.7100659012794495,-0.2915899157524109,-0.4427621364593506,-0.4634043872356415,0.10370956361293793,-0.3191818594932556,0.16253089904785156,0,0,0
448038579,d4:22:cd:00:30:92,0.7097516059875488,-0.29305243492126465,-0.4436686336994171,-0.4620944857597351,0.012437154538929462,-0.4148755967617035,0.1981363296508789,0,0,0
448055246,d4:22:cd:00:30:92,0.7094882130622864,-0.29438069462776184,-0.44464701414108276,-0.4607120156288147,-0.04626360535621643,-0.37833255529403687,0.2126789093017578,0,0,0
448071913,d4:22:cd:00:30:92,0.709284782409668,-0.29550260305404663,-0.4456704556941986,-0.45931607484817505,0.06779035925865173,-0.2748279571533203,0.21645164489746094,0,0,0
448088580,d4:22:cd:00:30:92,0.7090345025062561,-0.2967115342617035,-0.44660648703575134,-0.4580122232437134,0.12585701048374176,-0.16401313245296478,0.1735820770263672,0,0,0
448105247,d4:22:cd:00:30:92,0.7087400555610657,-0.2980521321296692,-0.44746893644332886,-0.4567539393901825,0.14677022397518158,-0.12032529711723328,0.2008810043334961,0,0,0
448121914,d4:22:cd:00:30:92,0.7084011435508728,-0.299495667219162,-0.448377400636673,-0.45544278621673584,0.15198656916618347,-0.005595646798610687,0.2050457000732422,0,0,0
448138581,d4:22:cd:00:30:92,0.7080456018447876,-0.3010467290878296,-0.4493028521537781,-0.4540586471557617,0.2341490387916565,-0.14107400178909302,0.15635013580322266,0,0,0
448155248,d4:22:cd:00:30:92,0.7077538967132568,-0.30257490277290344,-0.4501792788505554,-0.4526277184486389,0.15008291602134705,-0.204640194773674,0.1548624038696289,0,0,0
448171915,d4:22:cd:00:30:92,0.7076030969619751,-0.30395177006721497,-0.45116934180259705,-0.4509516954421997,0.20018446445465088,-0.10915389657020569,0.12300586700439453,0,0,0
448188582,d4:22:cd:00:30:92,0.7075638175010681,-0.3050614297389984,-0.45219501852989197,-0.44923335313796997,0.20611895620822906,-0.34106624126434326,0.07294654846191406,0,0,0
448205249,d4:22:cd:00:30:92,0.7075172066688538,-0.3061524033546448,-0.4530031085014343,-0.447748064994812,0.22308291494846344,-0.26400142908096313,0.021134376525878906,0,0,0
448221916,d4:22:cd:00:30:92,0.7074984908103943,-0.3072483241558075,-0.45368438959121704,-0.4463348686695099,0.07803485542535782,-0.15391169488430023,0.0031633377075195312,0,0,0
448238583,d4:22:cd:00:30:92,0.7075060606002808,-0.30820727348327637,-0.4544456899166107,-0.4448848068714142,0.025491205975413322,-0.17930656671524048,0.015091896057128906,0,0,0
448255250,d4:22:cd:00:30:92,0.7075007557868958,-0.3091674745082855,-0.4551145136356354,-0.44354137778282166,0.13438425958156586,-0.08096577972173691,0.052580833435058594,0,0,0
448271917,d4:22:cd:00:30:92,0.7074410915374756,-0.3101346492767334,-0.4558904767036438,-0.4421624541282654,0.07142647355794907,0.07612158358097076,0.0948324203491211,0,0,0
448288584,d4:22:cd:00:30:92,0.7074893116950989,-0.31094738841056824,-0.4569742679595947,-0.4403921365737915,0.08790741860866547,0.08362089097499847,0.12971878051757812,0,0,0
448305251,d4:22:cd:00:30:92,0.7077271938323975,-0.3114454746246338,-0.45831501483917236,-0.438259482383728,0.1654069572687149,-0.14269626140594482,0.13585281372070312,0,0,0
448321918,d4:22:cd:00:30:92,0.7078458070755005,-0.3121258020401001,-0.4593934714794159,-0.4364510178565979,0.22513744235038757,-0.29043450951576233,0.12891769409179688,0,0,0
448338585,d4:22:cd:00:30:92,0.7077248692512512,-0.313077837228775,-0.4602600336074829,-0.4350501596927643,0.07327447831630707,-0.19218449294567108,0.20287132263183594,0,0,0
448355252,d4:22:cd:00:30:92,0.7074242830276489,-0.31424039602279663,-0.46103063225746155,-0.4338834285736084,0.13836190104484558,-0.28154003620147705,0.2529439926147461,0,0,0
448371919,d4:22:cd:00:30:92,0.7071883678436279,-0.31531521677970886,-0.46180272102355957,-0.4326653778553009,0.00950801745057106,-0.44310951232910156,0.14020538330078125,0,0,0
448388586,d4:22:cd:00:30:92,0.7072543501853943,-0.3159625828266144,-0.4625934362411499,-0.4312383830547333,0.018222341313958168,-0.4830278158187866,0.17172527313232422,0,0,0
448405253,d4:22:cd:00:30:92,0.7076979279518127,-0.3161047697067261,-0.4636123478412628,-0.42930808663368225,0.029728339985013008,-0.23212625086307526,0.11075592041015625,0,0,0
448421920,d4:22:cd:00:30:92,0.7083837985992432,-0.31597208976745605,-0.46478793025016785,-0.42699673771858215,0.1938532292842865,-0.24382781982421875,0.1254444122314453,0,0,0
448438587,d4:22:cd:00:30:92,0.7091002464294434,-0.31602638959884644,-0.46560022234916687,-0.4248772859573364,0.36585158109664917,-0.5816028118133545,0.05800342559814453,0,0,0
448455254,d4:22:cd:00:30:92,0.7096043825149536,-0.31627756357192993,-0.4658627212047577,-0.4235590398311615,0.2030785083770752,-0.8606536388397217,0.08065605163574219,0,0,0
448471921,d4:22:cd:00:30:92,0.7097772359848022,-0.31673821806907654,-0.4658834636211395,-0.42290183901786804,0.1462060809135437,-0.23288753628730774,0.21821880340576172,0,0,0
448488588,d4:22:cd:00:30:92,0.7098576426506042,-0.3172195553779602,-0.46621543169021606,-0.4220394790172577,0.07268998771905899,-0.028671124950051308,0.27385711669921875,0,0,0
448505255,d4:22:cd:00:30:92,0.7098962068557739,-0.31749916076660156,-0.46676701307296753,-0.42115363478660583,0.14227917790412903,-0.41918155550956726,0.12535572052001953,0,0,0
448521922,d4:22:cd:00:30:92,0.7097744941711426,-0.31773489713668823,-0.4670714735984802,-0.4208433926105499,0.05683554336428642,-0.765438437461853,-0.006180763244628906,0,0,0
448538589,d4:22:cd:00:30:92,0.7094392776489258,-0.31792303919792175,-0.46734389662742615,-0.42096415162086487,0.07740924507379532,-0.19349829852581024,0.07961750030517578,0,0,0
448555256,d4:22:cd:00:30:92,0.7089818120002747,-0.3181355595588684,-0.46795251965522766,-0.4208981394767761,0.029179392382502556,0.17652784287929535,0.18694210052490234,0,0,0
448571923,d4:22:cd:00:30:92,0.7086666822433472,-0.3181089162826538,-0.46874064207077026,-0.42057186365127563,0.2458398938179016,-0.28482478857040405,0.13486099243164062,0,0,0
448588590,d4:22:cd:00:30:92,0.7083081603050232,-0.31827566027641296,-0.4691845178604126,-0.4205548167228699,0.24487967789173126,-0.30079904198646545,0.14850425720214844,0,0,0
448605257,d4:22:cd:00:30:92,0.7078877091407776,-0.3185959458351135,-0.4693983793258667,-0.42078155279159546,0.04840217903256416,-0.4558835029602051,0.2261800765991211,0,0,0
448621924,d4:22:cd:00:30:92,0.7075825333595276,-0.3186788260936737,-0.46965712308883667,-0.42094314098358154,0.03427146375179291,-0.11415410041809082,0.2640495300292969,0,0,0
448638591,d4:22:cd:00:30:92,0.7072457671165466,-0.3190242052078247,-0.46969690918922424,-0.42120295763015747,0.22882361710071564,-0.3263242244720459,0.17650794982910156,0,0,0
448655258,d4:22:cd:00:30:92,0.7069591879844666,-0.3193378746509552,-0.46948713064193726,-0.4216800034046173,0.07043228298425674,-0.2800042927265167,0.06853580474853516,0,0,0
448671925,d4:22:cd:00:30:92,0.7066551446914673,-0.3196799159049988,-0.4690111577510834,-0.42245960235595703,0.001988594653084874,-0.40017804503440857,0.11049079895019531,0,0,0
448688592,d4:22:cd:00:30:92,0.7064768075942993,-0.31975051760673523,-0.4687672257423401,-0.4229747951030731,0.05635879188776016,0.1353417932987213,0.1446847915649414,0,0,0
448705259,d4:22:cd:00:30:92,0.706328272819519,-0.3198465406894684,-0.46872520446777344,-0.42319661378860474,0.18416528403759003,0.15274740755558014,0.21771812438964844,0,0,0
448721926,d4:22:cd:00:30:92,0.7062059044837952,-0.32000160217285156,-0.4686812460422516,-0.42333245277404785,0.308666467666626,-0.252255380153656,0.1347217559814453,0,0,0
448738593,d4:22:cd:00:30:92,0.7061059474945068,-0.3200777471065521,-0.4684922397136688,-0.42365074157714844,0.24685396254062653,-0.4453386068344116,0.1087350845336914,0,0,0
448755260,d4:22:cd:00:30:92,0.7059346437454224,-0.3202883005142212,-0.46834370493888855,-0.42394113540649414,0.1615026444196701,0.019366949796676636,0.12087631225585938,0,0,0
448771927,d4:22:cd:00:30:92,0.7058507800102234,-0.32024887204170227,-0.46849700808525085,-0.4239412248134613,0.16628000140190125,-0.24409089982509613,0.14302444458007812,0,0,0
448788594,d4:22:cd:00:30:92,0.7057263851165771,-0.3202866017818451,-0.46849068999290466,-0.4241267144680023,0.32679471373558044,-0.2711411118507385,0.10260391235351562,0,0,0
448805261,d4:22:cd:00:30:92,0.7055472135543823,-0.32029372453689575,-0.468496173620224,-0.4244133234024048,-0.016110142692923546,-0.17743508517742157,0.1382741928100586,0,0,0
448821928,d4:22:cd:00:30:92,0.7054722905158997,-0.32006189227104187,-0.46866509318351746,-0.42452627420425415,0.10959331691265106,-0.10900011658668518,0.117156982421875,0,0,0
448838595,d4:22:cd:00:30:92,0.7053552865982056,-0.32004550099372864,-0.4688035249710083,-0.424579918384552,0.18114539980888367,0.20253001153469086,0.1727581024169922,0,0,0
448855262,d4:22:cd:00:30:92,0.7051942944526672,-0.32023006677627563,-0.468927264213562,-0.42457154393196106,0.19131815433502197,-0.16263160109519958,0.1743316650390625,0,0,0
448871929,d4:22:cd:00:30:92,0.7051070928573608,-0.32032310962677,-0.46893882751464844,-0.42463329434394836,0.16955626010894775,-0.4069598615169525,0.15578174591064453,0,0,0
448888596,d4:22:cd:00:30:92,0.705097496509552,-0.3203195631504059,-0.46884799003601074,-0.42475247383117676,0.021552683785557747,-0.3104579448699951,0.2547893524169922,0,0,0
448905263,d4:22:cd:00:30:92,0.7051023840904236,-0.3201463222503662,-0.4690532386302948,-0.4246482253074646,0.018909865990281105,0.09029968082904816,0.24310588836669922,0,0,0
448921930,d4:22:cd:00:30:92,0.7049312591552734,-0.3202858567237854,-0.4690861701965332,-0.4247909486293793,0.20273585617542267,-0.169725239276886,0.19961261749267578,0,0,0
448938597,d4:22:cd:00:30:92,0.704712986946106,-0.3205738067626953,-0.4689466655254364,-0.42508959770202637,0.15351025760173798,-0.07107645273208618,0.0669240951538086,0,0,0
448955264,d4:22:cd:00:30:92,0.7045238614082336,-0.3208652436733246,-0.4687611162662506,-0.425387978553772,-0.018193284049630165,-0.12324370443820953,0.07894420623779297,0,0,0
448971931,d4:22:cd:00:30:92,0.7044142484664917,-0.3208672106266022,-0.4687536358833313,-0.42557594180107117,0.07235606014728546,-0.22501452267169952,0.036304473876953125,0,0,0
448988598,d4:22:cd:00:30:92,0.7044097781181335,-0.3205568194389343,-0.4686634838581085,-0.4259164333343506,0.1341569423675537,-0.4234028160572052,0.04573535919189453,0,0,0
449005265,d4:22:cd:00:30:92,0.7044035196304321,-0.32012519240379333,-0.46841374039649963,-0.4265258014202118,0.20024079084396362,-0.30167365074157715,0.0964651107788086,0,0,0
449021932,d4:22:cd:00:30:92,0.7043581008911133,-0.31965455412864685,-0.468187153339386,-0.4272020757198334,0.09225832670927048,-0.10744044184684753,0.19631290435791016,0,0,0
449038599,d4:22:cd:00:30:92,0.704190194606781,-0.3194235861301422,-0.46774283051490784,-0.42813706398010254,0.25704771280288696,-0.25787338614463806,0.08927536010742188,0,0,0
449055266,d4:22:cd:00:30:92,0.7040312886238098,-0.31916651129722595,-0.46708422899246216,-0.4293075501918793,0.07122486084699631,-0.43895530700683594,-0.006122589111328125,0,0,0
449071933,d4:22:cd:00:30:92,0.7039341330528259,-0.318731427192688,-0.4664054214954376,-0.430526465177536,0.04583289474248886,-0.412908673286438,0.06050300598144531,0,0,0
449088600,d4:22:cd:00:30:92,0.70387864112854,-0.31813955307006836,-0.46576398611068726,-0.43174800276756287,0.12427454441785812,-0.21766965091228485,0.0883626937866211,0,0,0
449105267,d4:22:cd:00:30:92,0.7038154602050781,-0.31760597229003906,-0.4648595452308655,-0.43321576714515686,0.13421237468719482,-0.4041331112384796,0.07578086853027344,0,0,0
449121934,d4:22:cd:00:30:92,0.7039031386375427,-0.31673070788383484,-0.46378713846206665,-0.43486034870147705,0.18492455780506134,-0.6605073809623718,0.04709053039550781,0,0,0
449138601,d4:22:cd:00:30:92,0.7040037512779236,-0.31564465165138245,-0.4624318480491638,-0.4369257092475891,0.09217674285173416,-0.7286278605461121,0.009575843811035156,0,0,0
449155268,d4:22:cd:00:30:92,0.7041212916374207,-0.3141534626483917,-0.4608972370624542,-0.4394254684448242,0.05768802389502525,-0.8757760524749756,-0.018034934997558594,0,0,0
449171935,d4:22:cd:00:30:92,0.7041391134262085,-0.3124740421772003,-0.4590904712677002,-0.4424751102924347,-0.006079105194658041,-0.7400712966918945,-0.04328632354736328,0,0,0
449188602,d4:22:cd:00:30:92,0.704085648059845,-0.31071335077285767,-0.45696356892585754,-0.4459877014160156,0.047253768891096115,-0.6875805854797363,-0.048552513122558594,0,0,0
449205269,d4:22:cd:00:30:92,0.7039709687232971,-0.3088449537754059,-0.45461133122444153,-0.4498538672924042,-0.06332814693450928,-0.5194025635719299,-0.050159454345703125,0,0,0
449221936,d4:22:cd:00:30:92,0.7039934396743774,-0.30655843019485474,-0.4523150622844696,-0.4536808431148529,-0.10745161771774292,-0.33092769980430603,-0.0007534027099609375,0,0,0
449238603,d4:22:cd:00:30:92,0.7041890621185303,-0.3038090467453003,-0.4501459300518036,-0.4573691785335541,0.0759776383638382,-0.18232198059558868,0.04122734069824219,0,0,0
449255270,d4:22:cd:00:30:92,0.7043318748474121,-0.30117887258529663,-0.4479580223560333,-0.46102237701416016,0.1977870613336563,0.2253209501504898,0.044152259826660156,0,0,0
449271937,d4:22:cd:00:30:92,0.7045094966888428,-0.2986087501049042,-0.4460468888282776,-0.46426457166671753,0.21922463178634644,0.49025532603263855,0.1823282241821289,0,0,0
449288604,d4:22:cd:00:30:92,0.7047570943832397,-0.2961274981498718,-0.4444583058357239,-0.46699342131614685,0.27627676725387573,0.2204544097185135,0.2619504928588867,0,0,0
449305271,d4:22:cd:00:30:92,0.7050094604492188,-0.29379892349243164,-0.44300511479377747,-0.46945786476135254,0.2763972282409668,0.04325959086418152,0.1975250244140625,0,0,0
449321938,d4:22:cd:00:30:92,0.7051826119422913,-0.2916882634162903,-0.4414306879043579,-0.47199007868766785,0.2746661305427551,-0.24216556549072266,0.22301292419433594,0,0,0
449338605,d4:22:cd:00:30:92,0.7054370045661926,-0.2894519567489624,-0.43986740708351135,-0.47443968057632446,-0.015234866179525852,-0.4416739046573639,0.23285388946533203,0,0,0
449355272,d4:22:cd:00:30:92,0.7057502865791321,-0.287106990814209,-0.4385078251361847,-0.47665196657180786,0.03495630994439125,-0.07088601589202881,0.24987411499023438,0,0,0
449371939,d4:22:cd:00:30:92,0.7059677839279175,-0.2848890721797943,-0.4371453821659088,-0.47890692949295044,0.13164667785167694,-0.08943222463130951,0.29022693634033203,0,0,0
449388606,d4:22:cd:00:30:92,0.7061364054679871,-0.2828369140625,-0.4357004463672638,-0.4811860918998718,0.09783318638801575,-0.22069869935512543,0.12775325775146484,0,0,0
449405273,d4:22:cd:00:30:92,0.7064377069473267,-0.280565470457077,-0.4341716766357422,-0.4834499955177307,0.0433545857667923,-0.6407749652862549,0.03725719451904297,0,0,0
449421940,d4:22:cd:00:30:92,0.7069825530052185,-0.2777266204357147,-0.4324052035808563,-0.4858699440956116,0.047762706875801086,-0.9919148683547974,-0.045205116271972656,0,0,0
449438607,d4:22:cd:00:30:92,0.7075825333595276,-0.2745775580406189,-0.4303308427333832,-0.48862016201019287,-0.04440375417470932,-0.6549533009529114,0.010049819946289062,0,0,0
449455274,d4:22:cd:00:30:92,0.7081811428070068,-0.2714257538318634,-0.4280215799808502,-0.49153345823287964,0.07495596259832382,-0.29493293166160583,0.04505348205566406,0,0,0
449471941,d4:22:cd:00:30:92,0.7086652517318726,-0.268476277589798,-0.42546984553337097,-0.4946610927581787,0.035028278827667236,-0.09578680992126465,-0.016676902770996094,0,0,0
449488608,d4:22:cd:00:30:92,0.709317147731781,-0.26509642601013184,-0.4227781891822815,-0.49784740805625916,0.0017024981789290905,-0.7107366919517517,-0.200408935546875,0,0,0
449505275,d4:22:cd:00:30:92,0.7102928757667542,-0.26091691851615906,-0.4198208153247833,-0.5011555552482605,0.04355485364794731,-0.8938440680503845,-0.25800418853759766,0,0,0
449521942,d4:22:cd:00:30:92,0.7113029360771179,-0.25667309761047363,-0.41645070910453796,-0.504713773727417,0.02682379074394703,-0.31290751695632935,-0.22614288330078125,0,0,0
449538609,d4:22:cd:00:30:92,0.7121809720993042,-0.2523293197154999,-0.4131711721420288,-0.5083481073379517,-0.17425070703029633,0.17240437865257263,0.02338695526123047,0,0,0
449555276,d4:22:cd:00:30:92,0.7129350304603577,-0.2479269951581955,-0.410004198551178,-0.5120081901550293,-0.013196875341236591,-0.036624833941459656,-0.0826263427734375,0,0,0
449571943,d4:22:cd:00:30:92,0.7135047316551208,-0.2435104101896286,-0.4067665934562683,-0.5159019231796265,0.054500505328178406,-0.11914794147014618,-0.07425308227539062,0,0,0
449588610,d4:22:cd:00:30:92,0.7139500975608826,-0.23908908665180206,-0.40325888991355896,-0.5200904607772827,-0.066960908472538,-0.36262428760528564,-0.03264331817626953,0,0,0
449605277,d4:22:cd:00:30:92,0.7144699096679688,-0.23432469367980957,-0.40004056692123413,-0.524015486240387,-0.19615474343299866,0.06608037650585175,-0.018362045288085938,0,0,0
449621944,d4:22:cd:00:30:92,0.715021550655365,-0.22925660014152527,-0.3969409167766571,-0.5278480052947998,-0.07147921621799469,-0.21110385656356812,0.0721731185913086,0,0,0
449638611,d4:22:cd:00:30:92,0.7155134081840515,-0.22432032227516174,-0.39354556798934937,-0.5318297743797302,0.2299843281507492,-0.18325290083885193,-0.0052967071533203125,0,0,0
449655278,d4:22:cd:00:30:92,0.7158399820327759,-0.21959862112998962,-0.3897346556186676,-0.5361498594284058,-0.0462164431810379,-0.29836609959602356,0.028045654296875,0,0,0
449671945,d4:22:cd:00:30:92,0.7162944078445435,-0.21440887451171875,-0.38591259717941284,-0.5403913855552673,-0.17734567821025848,-0.5778961181640625,-0.17096710205078125,0,0,0
449688612,d4:22:cd:00:30:92,0.7169093489646912,-0.2088296115398407,-0.38209691643714905,-0.5444567799568176,-0.12675844132900238,-0.1466435045003891,-0.17691898345947266,0,0,0
449705279,d4:22:cd:00:30:92,0.717452347278595,-0.20314830541610718,-0.3780593276023865,-0.5486931800842285,-0.18949539959430695,-0.4193982481956482,-0.2276296615600586,0,0,0
449721946,d4:22:cd:00:30:92,0.7178247570991516,-0.19777122139930725,-0.37373408675193787,-0.553115725517273,0.10477661341428757,0.28578981757164,-0.06916332244873047,0,0,0
449738613,d4:22:cd:00:30:92,0.718068540096283,-0.1927138715982437,-0.3691580295562744,-0.5576390624046326,0.0035113885533064604,0.08485904335975647,0.0009937286376953125,0,0,0
449755280,d4:22:cd:00:30:92,0.7183659672737122,-0.187421515583992,-0.3649081885814667,-0.5618412494659424,0.11460515111684799,0.31440773606300354,-0.07035636901855469,0,0,0
449771947,d4:22:cd:00:30:92,0.7186174988746643,-0.18187807500362396,-0.36073753237724304,-0.5660191774368286,-0.023414993658661842,-0.09726490080356598,-0.031937599182128906,0,0,0
449788614,d4:22:cd:00:30:92,0.7188419699668884,-0.17610813677310944,-0.3566683530807495,-0.5701227188110352,0.11740107089281082,-0.06905723363161087,-0.12317657470703125,0,0,0
449805281,d4:22:cd:00:30:92,0.7188817858695984,-0.17053446173667908,-0.35262614488601685,-0.5742664337158203,0.11971331387758255,0.19870468974113464,0.057364463806152344,0,0,0
449821948,d4:22:cd:00:30:92,0.7187721133232117,-0.16515378654003143,-0.34870800375938416,-0.5783544778823853,0.1740323305130005,0.3021204471588135,0.14005374908447266,0,0,0
449838615,d4:22:cd:00:30:92,0.718600332736969,-0.16007757186889648,-0.3447935879230499,-0.5823283195495605,0.2104763388633728,0.2677382230758667,0.08779335021972656,0,0,0
449855282,d4:22:cd:00:30:92,0.7184219360351562,-0.1549675464630127,-0.3408760726451874,-0.5862241387367249,0.07041328400373459,-0.07341036945581436,-0.0005846023559570312,0,0,0
449871949,d4:22:cd:00:30:92,0.7182537317276001,-0.1498664915561676,-0.336895614862442,-0.590045154094696,0.10623525828123093,0.08874950557947159,0.11098575592041016,0,0,0
449888616,d4:22:cd:00:30:92,0.7181426882743835,-0.14455612003803253,-0.33329707384109497,-0.5935384035110474,0.006313570309430361,0.16013284027576447,0.12093162536621094,0,0,0
449905283,d4:22:cd:00:30:92,0.7180180549621582,-0.1396087408065796,-0.3299274444580078,-0.5967475771903992,0.2893006503582001,0.764799952507019,0.44420623779296875,0,0,0
449921950,d4:22:cd:00:30:92,0.717806339263916,-0.13544607162475586,-0.32625022530555725,-0.5999743342399597,0.35384848713874817,0.317006915807724,0.24463748931884766,0,0,0
449938617,d4:22:cd:00:30:92,0.7177523970603943,-0.13102121651172638,-0.3225990831851959,-0.6029881834983826,-0.004952600225806236,-0.2583440840244293,-0.0435333251953125,0,0,0
449955284,d4:22:cd:00:30:92,0.7178458571434021,-0.1258968710899353,-0.3190126121044159,-0.6058697700500488,-0.12106825411319733,-0.6141169667243958,-0.14223575592041016,0,0,0
449971951,d4:22:cd:00:30:92,0.7179035544395447,-0.12056652456521988,-0.31536322832107544,-0.6087892651557922,-0.1215248852968216,-0.29445162415504456,0.07794380187988281,0,0,0
449988618,d4:22:cd:00:30:92,0.7177954316139221,-0.1157713234424591,-0.31154146790504456,-0.6118077039718628,0.10026142746210098,0.30977863073349,0.28702831268310547,0,0,0
450005285,d4:22:cd:00:30:92,0.7175315618515015,-0.11141387373209,-0.30770525336265564,-0.6148601174354553,-0.022009991109371185,0.39213883876800537,0.11542415618896484,0,0,0
450021952,d4:22:cd:00:30:92,0.717316746711731,-0.10697906464338303,-0.3039153218269348,-0.6177765727043152,0.11321333795785904,0.20173032581806183,-0.04548454284667969,0,0,0
450038619,d4:22:cd:00:30:92,0.7172211408615112,-0.10217656195163727,-0.30024975538253784,-0.620486855506897,-0.018877234309911728,-0.03766237944364548,-0.08648109436035156,0,0,0
450055286,d4:22:cd:00:30:92,0.7170329689979553,-0.09736593067646027,-0.29665836691856384,-0.6231994032859802,0.15685759484767914,0.2746811509132385,0.3001976013183594,0,0,0
450071953,d4:22:cd:00:30:92,0.7167044281959534,-0.09315461665391922,-0.29317769408226013,-0.6258625984191895,0.1430111825466156,0.6230073571205139,0.6415166854858398,0,0,0
450088620,d4:22:cd:00:30:92,0.7163040041923523,-0.08956947922706604,-0.2898320257663727,-0.6283974647521973,0.19118493795394897,0.5755545496940613,0.4260444641113281,0,0,0
450105287,d4:22:cd:00:30:92,0.7158934473991394,-0.08589551597833633,-0.2866540849208832,-0.630831241607666,0.023549549281597137,-0.01286272332072258,0.05335044860839844,0,0,0
450121954,d4:22:cd:00:30:92,0.7155762314796448,-0.0817282497882843,-0.28363358974456787,-0.633105993270874,-0.05404677242040634,-0.26298996806144714,0.03972148895263672,0,0,0
450138621,d4:22:cd:00:30:92,0.7152580618858337,-0.07720603793859482,-0.2809109091758728,-0.6352433562278748,-0.11921488493680954,-0.24332983791828156,0.10327625274658203,0,0,0
450155288,d4:22:cd:00:30:92,0.7148527503013611,-0.07281731069087982,-0.27811411023139954,-0.6374449133872986,0.0585409477353096,-0.0716375783085823,0.25477123260498047,0,0,0
450171955,d4:22:cd:00:30:92,0.7143950462341309,-0.06922176480293274,-0.27482008934020996,-0.6397827863693237,0.22898700833320618,0.22924692928791046,0.36361122131347656,0,0,0
450188622,d4:22:cd:00:30:92,0.7139647006988525,-0.06578569859266281,-0.27129295468330383,-0.642126739025116,-0.1651725023984909,-0.18187372386455536,-0.07435417175292969,0,0,0
450205289,d4:22:cd:00:30:92,0.7136779427528381,-0.06151451915502548,-0.26805296540260315,-0.6442261338233948,-0.05901099741458893,-0.3460584580898285,-0.1947193145751953,0,0,0
450221956,d4:22:cd:00:30:92,0.7133935689926147,-0.05721987038850784,-0.2647346258163452,-0.6463058590888977,-0.0037252905312925577,0.10412409901618958,0.20892906188964844,0,0,0
450238623,d4:22:cd:00:30:92,0.7129844427108765,-0.05334813520312309,-0.2613358497619629,-0.6484681367874146,0.05531185865402222,0.1956377923488617,0.13522720336914062,0,0,0
450255290,d4:22:cd:00:30:92,0.7125325798988342,-0.04959295690059662,-0.25786104798316956,-0.6506500840187073,0.03552548587322235,0.2283330112695694,0.149383544921875,0,0,0
450271957,d4:22:cd:00:30:92,0.7120504975318909,-0.04566967487335205,-0.25439661741256714,-0.6528251767158508,-0.09185566753149033,-0.08299443870782852,-0.013187408447265625,0,0,0
450288624,d4:22:cd:00:30:92,0.7115074396133423,-0.04114159569144249,-0.2512558400630951,-0.654931366443634,-0.2121153622865677,-0.3293009400367737,-0.07103252410888672,0,0,0
450305291,d4:22:cd:00:30:92,0.7108706831932068,-0.03642229735851288,-0.24819469451904297,-0.6570659875869751,-0.051254089921712875,-0.07736176997423172,0.18330001831054688,0,0,0
450321958,d4:22:cd:00:30:92,0.7101984620094299,-0.032255515456199646,-0.24481245875358582,-0.6592759490013123,0.04241974279284477,0.07946864515542984,0.040607452392578125,0,0,0
450338625,d4:22:cd:00:30:92,0.7094465494155884,-0.028357990086078644,-0.24120625853538513,-0.6615898609161377,0.02321047894656658,0.16447535157203674,0.026075363159179688,0,0,0
450355292,d4:22:cd:00:30:92,0.7087336182594299,-0.02457294426858425,-0.23753996193408966,-0.6638280153274536,0.030977219343185425,0.20109589397907257,0.12787818908691406,0,0,0
450371959,d4:22:cd:00:30:92,0.7081058025360107,-0.02057097665965557,-0.23422126471996307,-0.6658103466033936,0.04415386542677879,0.21065686643123627,0.14173030853271484,0,0,0
450388626,d4:22:cd:00:30:92,0.707495927810669,-0.016198042780160904,-0.2312363088130951,-0.6676204204559326,-0.05505213513970375,-0.04369421303272247,0.06537914276123047,0,0,0
450405293,d4:22:cd:00:30:92,0.706832766532898,-0.011663222685456276,-0.22806380689144135,-0.6695060729980469,0.10317369550466537,-0.41730260848999023,-0.12445926666259766,0,0,0
450421960,d4:22:cd:00:30:92,0.7060762047767639,-0.007203502580523491,-0.2244015634059906,-0.6716015338897705,0.003818160155788064,-0.37153875827789307,-0.0833749771118164,0,0,0
450438627,d4:22:cd:00:30:92,0.7052730321884155,-0.003235663753002882,-0.22052094340324402,-0.6737582087516785,0.18657095730304718,0.3982836902141571,0.4181327819824219,0,0,0
450455294,d4:22:cd:00:30:92,0.7044563293457031,0.00042288447730243206,-0.21679027378559113,-0.6758278012275696,-0.12939958274364471,0.3164932429790497,-0.05704689025878906,0,0,0
450471961,d4:22:cd:00:30:92,0.7037510275840759,0.004581434652209282,-0.2134665846824646,-0.6776028871536255,0.02607479877769947,0.2505878508090973,-0.16999244689941406,0,0,0
450488628,d4:22:cd:00:30:92,0.7030513286590576,0.008978182449936867,-0.21008962392807007,-0.6793383359909058,0.053890202194452286,0.017615046352148056,-0.15120506286621094,0,0,0
450505295,d4:22:cd:00:30:92,0.7022396922111511,0.01333576999604702,-0.2066214233636856,-0.681167483329773,0.057844147086143494,0.026467984542250633,0.1184244155883789,0,0,0
450521962,d4:22:cd:00:30:92,0.7013751268386841,0.01749492436647415,-0.20295320451259613,-0.6830644011497498,0.06874074041843414,-0.04469577968120575,0.1850423812866211,0,0,0
450538629,d4:22:cd:00:30:92,0.7005422711372375,0.021188873797655106,-0.1992376446723938,-0.6849057674407959,0.13871560990810394,0.44724276661872864,0.48743343353271484,0,0,0
450555296,d4:22:cd:00:30:92,0.6996974945068359,0.02523438259959221,-0.19608837366104126,-0.6865392327308655,-0.21811500191688538,0.07967591285705566,0.012071609497070312,0,0,0
450571963,d4:22:cd:00:30:92,0.6988046765327454,0.029879145324230194,-0.19335144758224487,-0.6880366802215576,0.06577841192483902,-0.08170918375253677,-0.09758663177490234,0,0,0
450588630,d4:22:cd:00:30:92,0.6978694796562195,0.03429722040891647,-0.18998338282108307,-0.689716100692749,0.08473767340183258,-0.29643765091896057,-0.24425411224365234,0,0,0
450605297,d4:22:cd:00:30:92,0.6968541741371155,0.03875330463051796,-0.18619485199451447,-0.6915374398231506,-0.07664494216442108,-0.2447177767753601,-0.11517810821533203,0,0,0
450621964,d4:22:cd:00:30:92,0.6958460211753845,0.04310513660311699,-0.18230490386486053,-0.6933292150497437,0.02492627687752247,0.19542276859283447,0.1274280548095703,0,0,0
