sep=,
Measurement Mode:,Extended (Quaternion)
StartTime:,Tue, 24 May 2022 08:00:51 GMT
© Xsens Technologies B. V. 2005-2022

Timestamp,Address,Quaternion_w,Quaternion_x,Quaternion_y,Quaternion_z,FreeAcc_x,FreeAcc_y,FreeAcc_z,Status,ClipCountAcc,ClipCountGyr
2456143475,d4:22:cd:00:30:92,-0.02059161104261875,-0.04495907947421074,-0.19726961851119995,-0.979102611541748,-0.20398052036762238,-0.08598162233829498,0.24697494506835938,0,0,0
2456160142,d4:22:cd:00:30:92,-0.020379317924380302,-0.0443185493350029,-0.1973971575498581,-0.9791104793548584,-0.18180912733078003,-0.02825910411775112,0.12305545806884766,0,0,0
2456176809,d4:22:cd:00:30:92,-0.020036401227116585,-0.04360391944646835,-0.1976156383752823,-0.9791056513786316,-0.14838352799415588,-0.02255251631140709,0.09394645690917969,0,0,0
2456193476,d4:22:cd:00:30:92,-0.019688131287693977,-0.04289478063583374,-0.19789743423461914,-0.9790871143341064,-0.13832862675189972,-0.091890349984169,0.05135822296142578,0,0,0
2456210143,d4:22:cd:00:30:92,-0.019343499094247818,-0.04217374324798584,-0.19812361896038055,-0.9790794849395752,-0.13825659453868866,-0.09873919934034348,0.03145122528076172,0,0,0
2456226810,d4:22:cd:00:30:92,-0.019067127257585526,-0.04151851683855057,-0.1982606202363968,-0.9790853261947632,-0.07351803779602051,-0.11325257271528244,-0.0857391357421875,0,0,0
2456243477,d4:22:cd:00:30:92,-0.018685778602957726,-0.04099456965923309,-0.19824284315109253,-0.9791181683540344,-0.021334059536457062,-0.11787764728069305,-0.14278888702392578,0,0,0
2456260144,d4:22:cd:00:30:92,-0.018265418708324432,-0.04064572602510452,-0.19832941889762878,-0.9791232943534851,-0.015249066986143589,-0.03484909608960152,-0.15659332275390625,0,0,0
2456276811,d4:22:cd:00:30:92,-0.017981594428420067,-0.040500570088624954,-0.19864876568317413,-0.979069709777832,-0.05069032683968544,-0.053544435650110245,-0.08583641052246094,0,0,0
2456293478,d4:22:cd:00:30:92,-0.017634084448218346,-0.0404781699180603,-0.1989770531654358,-0.9790101647377014,-0.07897460460662842,-0.07738880813121796,-0.0016574859619140625,0,0,0
2456310145,d4:22:cd:00:30:92,-0.017337389290332794,-0.0405556857585907,-0.19914835691452026,-0.9789775609970093,-0.0811409056186676,-0.046865906566381454,0.028276443481445312,0,0,0
2456326812,d4:22:cd:00:30:92,-0.017012672498822212,-0.040701016783714294,-0.199211984872818,-0.9789643287658691,-0.07202765345573425,0.011886396445333958,0.02247905731201172,0,0,0
2456343479,d4:22:cd:00:30:92,-0.016685590147972107,-0.04088328033685684,-0.19932475686073303,-0.978939414024353,-0.09648053348064423,0.10547838360071182,0.009740829467773438,0,0,0
2456360146,d4:22:cd:00:30:92,-0.01631450280547142,-0.041029080748558044,-0.19958113133907318,-0.9788872599601746,-0.14550083875656128,0.08984844386577606,0.09871578216552734,0,0,0
2456376813,d4:22:cd:00:30:92,-0.016072683036327362,-0.041095372289419174,-0.19979806244373322,-0.9788442850112915,-0.128122016787529,0.09663163870573044,0.1882190704345703,0,0,0
2456393480,d4:22:cd:00:30:92,-0.015799613669514656,-0.041059382259845734,-0.19986802339553833,-0.978835940361023,-0.10677338391542435,0.10651159286499023,0.14205551147460938,0,0,0
2456410147,d4:22:cd:00:30:92,-0.015515588223934174,-0.04092094302177429,-0.19987662136554718,-0.9788445830345154,-0.1004502922296524,0.09184687584638596,0.10472774505615234,0,0,0
2456426814,d4:22:cd:00:30:92,-0.015252269804477692,-0.04070070758461952,-0.19999894499778748,-0.9788328409194946,-0.11644132435321808,0.11076482385396957,0.08722686767578125,0,0,0
2456443481,d4:22:cd:00:30:92,-0.015035515651106834,-0.0404001921415329,-0.20010028779506683,-0.9788280129432678,-0.10933545976877213,0.042598169296979904,0.11443805694580078,0,0,0
2456460148,d4:22:cd:00:30:92,-0.014928655698895454,-0.04014443978667259,-0.20007452368736267,-0.9788454174995422,-0.07126547396183014,0.030485372990369797,0.0058307647705078125,0,0,0
2456476815,d4:22:cd:00:30:92,-0.014806771650910378,-0.039890848100185394,-0.2000538408756256,-0.978861927986145,-0.060943085700273514,0.024135421961545944,0.04124164581298828,0,0,0
2456493482,d4:22:cd:00:30:92,-0.014654785394668579,-0.039601411670446396,-0.2000977098941803,-0.9788669347763062,-0.09816526621580124,0.01145437452942133,0.1317577362060547,0,0,0
2456510149,d4:22:cd:00:30:92,-0.014492131769657135,-0.0393204540014267,-0.20019769668579102,-0.9788602590560913,-0.0759541243314743,-0.008000534027814865,0.11498832702636719,0,0,0
2456526816,d4:22:cd:00:30:92,-0.014413885772228241,-0.039099425077438354,-0.20034918189048767,-0.9788392782211304,-0.03479544818401337,-0.015465475618839264,0.08200740814208984,0,0,0
2456543483,d4:22:cd:00:30:92,-0.014460692182183266,-0.0389115996658802,-0.20051081478595734,-0.9788128733634949,-0.006204014178365469,0.008586536161601543,0.18188095092773438,0,0,0
2456560150,d4:22:cd:00:30:92,-0.014480723068118095,-0.03867761418223381,-0.20086872577667236,-0.9787485599517822,-0.037215109914541245,-0.017815858125686646,0.2937202453613281,0,0,0
2456576817,d4:22:cd:00:30:92,-0.014453418552875519,-0.03833269700407982,-0.2012987732887268,-0.978674054145813,-0.06496047228574753,-0.08258149027824402,0.31530189514160156,0,0,0
2456593484,d4:22:cd:00:30:92,-0.01446196436882019,-0.037874214351177216,-0.2016616314649582,-0.9786173105239868,-0.06917734444141388,-0.09843669086694717,0.3485240936279297,0,0,0
2456610151,d4:22:cd:00:30:92,-0.014612864702939987,-0.03729327395558357,-0.20182210206985474,-0.9786041975021362,-0.005797136574983597,-0.06496117264032364,0.3669719696044922,0,0,0
2456626818,d4:22:cd:00:30:92,-0.014778275042772293,-0.03660312294960022,-0.20202289521694183,-0.9785862565040588,0.05349355190992355,0.04798920080065727,0.3399019241333008,0,0,0
2456643485,d4:22:cd:00:30:92,-0.014652183279395103,-0.035767775028944016,-0.20260365307331085,-0.9784989356994629,0.0245384331792593,0.034983355551958084,0.3794708251953125,0,0,0
2456660152,d4:22:cd:00:30:92,-0.014868875965476036,-0.03480793908238411,-0.20346181094646454,-0.9783522486686707,-0.05758906900882721,-0.015115451067686081,0.44091320037841797,0,0,0
2456676819,d4:22:cd:00:30:92,-0.015306411311030388,-0.03376411274075508,-0.20429624617099762,-0.9782083034515381,-0.07378453761339188,-0.008007768541574478,0.29695606231689453,0,0,0
2456693486,d4:22:cd:00:30:92,-0.015765955671668053,-0.032616160809993744,-0.20495197176933289,-0.9781028032302856,-0.04168937727808952,0.013711916282773018,0.2596101760864258,0,0,0
2456710153,d4:22:cd:00:30:92,-0.016280725598335266,-0.03135984390974045,-0.20545679330825806,-0.9780294299125671,-0.02841770276427269,0.1197112500667572,0.19945049285888672,0,0,0
2456726820,d4:22:cd:00:30:92,-0.016797373071312904,-0.03005869686603546,-0.20608659088611603,-0.9779289364814758,-0.037165530025959015,0.24345922470092773,0.07757568359375,0,0,0
2456743487,d4:22:cd:00:30:92,-0.01713557355105877,-0.02875051647424698,-0.20687711238861084,-0.9777954816818237,-0.08922284841537476,0.2371155321598053,0.07958984375,0,0,0
2456760154,d4:22:cd:00:30:92,-0.017415516078472137,-0.02755933627486229,-0.20767046511173248,-0.9776567220687866,-0.09391563385725021,0.21394126117229462,0.005757331848144531,0,0,0
2456776821,d4:22:cd:00:30:92,-0.017552949488162994,-0.0265213493257761,-0.20852921903133392,-0.9775002002716064,-0.09916383773088455,0.27180129289627075,-0.10997676849365234,0,0,0
2456793488,d4:22:cd:00:30:92,-0.017478488385677338,-0.025592099875211716,-0.20948712527751923,-0.977321445941925,-0.11527380347251892,0.19375231862068176,-0.16135787963867188,0,0,0
2456810155,d4:22:cd:00:30:92,-0.017368517816066742,-0.02474113740026951,-0.21035683155059814,-0.9771585464477539,-0.14368346333503723,0.13618743419647217,-0.11810111999511719,0,0,0
2456826822,d4:22:cd:00:30:92,-0.017158430069684982,-0.023972563445568085,-0.21094466745853424,-0.9770545959472656,-0.13951413333415985,0.11651434004306793,-0.13016891479492188,0,0,0
2456843489,d4:22:cd:00:30:92,-0.01695847138762474,-0.023334864526987076,-0.21144527196884155,-0.9769653677940369,-0.1015428751707077,0.1274823397397995,-0.22052764892578125,0,0,0
2456860156,d4:22:cd:00:30:92,-0.016803110018372536,-0.022821201011538506,-0.2120899260044098,-0.9768404364585876,-0.09744559228420258,0.13512513041496277,-0.20676708221435547,0,0,0
2456876823,d4:22:cd:00:30:92,-0.016631929203867912,-0.022351358085870743,-0.21281850337982178,-0.9766958951950073,-0.10572972148656845,0.06471534818410873,-0.17629528045654297,0,0,0
2456893490,d4:22:cd:00:30:92,-0.016483955085277557,-0.021980565041303635,-0.21338479220867157,-0.9765832424163818,-0.07327202707529068,-0.030111201107501984,-0.18866729736328125,0,0,0
2456910157,d4:22:cd:00:30:92,-0.016292674466967583,-0.02166794240474701,-0.21369843184947968,-0.9765247702598572,-0.09992434829473495,0.03328830003738403,-0.1326904296875,0,0,0
2456926824,d4:22:cd:00:30:92,-0.016158876940608025,-0.0213383249938488,-0.2139228880405426,-0.9764850735664368,-0.10198526829481125,0.010168343782424927,-0.09520149230957031,0,0,0
2456943491,d4:22:cd:00:30:92,-0.016165589913725853,-0.021008368581533432,-0.2141244113445282,-0.9764479994773865,-0.06120091304183006,-0.027908874675631523,-0.055808067321777344,0,0,0
2456960158,d4:22:cd:00:30:92,-0.016240417957305908,-0.020664524286985397,-0.21429012715816498,-0.9764177203178406,-0.0543685220181942,-0.03711814433336258,-0.0550994873046875,0,0,0
2456976825,d4:22:cd:00:30:92,-0.016339976340532303,-0.020300649106502533,-0.21423611044883728,-0.9764354228973389,-0.008553198538720608,-0.054802026599645615,-0.024450302124023438,0,0,0
2456993492,d4:22:cd:00:30:92,-0.01654566265642643,-0.019946925342082977,-0.21401485800743103,-0.9764878749847412,-0.02622395008802414,0.015050213783979416,0.022589683532714844,0,0,0
2457010159,d4:22:cd:00:30:92,-0.01666148006916046,-0.01956190913915634,-0.21389763057231903,-0.9765193462371826,-0.03262622281908989,0.060576971620321274,0.07338619232177734,0,0,0
2457026826,d4:22:cd:00:30:92,-0.01690043695271015,-0.01920272409915924,-0.21386930346488953,-0.9765287637710571,-0.0418822355568409,0.020861461758613586,0.049811363220214844,0,0,0
2457043493,d4:22:cd:00:30:92,-0.017062049359083176,-0.018890131264925003,-0.21374566853046417,-0.9765589833259583,-0.0635160356760025,0.014129803515970707,0.012310981750488281,0,0,0
2457060160,d4:22:cd:00:30:92,-0.01714150235056877,-0.01864318549633026,-0.21346822381019592,-0.9766229391098022,-0.027264486998319626,0.03679196536540985,0.06323528289794922,0,0,0
2457076827,d4:22:cd:00:30:92,-0.017092151567339897,-0.018460961058735847,-0.21327552199363708,-0.976669430732727,-0.038869090378284454,0.12996655702590942,0.1083974838256836,0,0,0
2457093494,d4:22:cd:00:30:92,-0.016951480880379677,-0.01824365369975567,-0.21334116160869598,-0.9766616225242615,-0.07776229083538055,0.16375786066055298,0.09987163543701172,0,0,0
2457110161,d4:22:cd:00:30:92,-0.01684418134391308,-0.018103621900081635,-0.2133861482143402,-0.9766561985015869,-0.05830378085374832,0.04274951294064522,0.02056121826171875,0,0,0
2457126828,d4:22:cd:00:30:92,-0.01656116545200348,-0.018055345863103867,-0.2130746990442276,-0.9767299294471741,-0.03648842126131058,-0.020282728597521782,-0.049900054931640625,0,0,0
2457143495,d4:22:cd:00:30:92,-0.016313452273607254,-0.018137797713279724,-0.21260085701942444,-0.9768359065055847,-0.062171559780836105,0.06680119782686234,-0.143768310546875,0,0,0
2457160162,d4:22:cd:00:30:92,-0.01595192402601242,-0.018376071006059647,-0.21232014894485474,-0.9768984317779541,-0.06537943333387375,0.11161793023347855,-0.11814308166503906,0,0,0
2457176829,d4:22:cd:00:30:92,-0.015455128625035286,-0.018803615123033524,-0.21205899119377136,-0.9769549369812012,-0.020471788942813873,0.04071001708507538,-0.17584514617919922,0,0,0
2457193496,d4:22:cd:00:30:92,-0.014842838048934937,-0.01967284455895424,-0.21163280308246613,-0.9770397543907166,0.02074526436626911,0.016280194744467735,-0.31626129150390625,0,0,0
2457210163,d4:22:cd:00:30:92,-0.013964023441076279,-0.0211249440908432,-0.21135853230953217,-0.9770818948745728,0.007447381969541311,0.09332077205181122,-0.33734703063964844,0,0,0
2457226830,d4:22:cd:00:30:92,-0.012862060219049454,-0.023083217442035675,-0.21113640069961548,-0.977100670337677,-0.06954663246870041,0.04055413976311684,-0.23068809509277344,0,0,0
2457243497,d4:22:cd:00:30:92,-0.011486619710922241,-0.02558043599128723,-0.210908904671669,-0.9771047830581665,-0.1101863905787468,0.1653122752904892,-0.5582160949707031,0,0,0
2457260164,d4:22:cd:00:30:92,-0.009927760809659958,-0.028628353029489517,-0.2107265740633011,-0.9770766496658325,-0.14882071316242218,0.09369176626205444,-0.6642122268676758,0,0,0
2457276831,d4:22:cd:00:30:92,-0.00829983875155449,-0.03217215836048126,-0.21023808419704437,-0.9770867824554443,-0.2368387132883072,0.05459791421890259,-0.718724250793457,0,0,0
2457293498,d4:22:cd:00:30:92,-0.0064806826412677765,-0.03628687188029289,-0.20919427275657654,-0.9771804213523865,-0.3019467294216156,0.0010827298974618316,-0.7738914489746094,0,0,0
2457310165,d4:22:cd:00:30:92,-0.004473328590393066,-0.04107899218797684,-0.20744109153747559,-0.9773756861686707,-0.36752113699913025,0.0895707756280899,-0.9758462905883789,0,0,0
2457326832,d4:22:cd:00:30:92,-0.002246435731649399,-0.04665335267782211,-0.20522695779800415,-0.9776004552841187,-0.38988497853279114,0.1638520210981369,-1.223663330078125,0,0,0
2457343499,d4:22:cd:00:30:92,0.00021675974130630493,-0.05294997990131378,-0.2025020867586136,-0.9778505563735962,-0.524246096611023,0.054027121514081955,-1.1287851333618164,0,0,0
2457360166,d4:22:cd:00:30:92,0.002803441137075424,-0.059968940913677216,-0.19915516674518585,-0.9781286716461182,-0.7597885131835938,0.1457206755876541,-1.1056203842163086,0,0,0
2457376833,d4:22:cd:00:30:92,0.005314536392688751,-0.06741943955421448,-0.19577966630458832,-0.9783145785331726,-0.9270692467689514,0.08961787819862366,-1.1136417388916016,0,0,0
2457393500,d4:22:cd:00:30:92,0.008038878440856934,-0.07515053451061249,-0.19274064898490906,-0.9783360362052917,-0.9764061570167542,0.11950040608644485,-1.1567983627319336,0,0,0
2457410167,d4:22:cd:00:30:92,0.010352447628974915,-0.08310193568468094,-0.18978339433670044,-0.978249192237854,-0.9398692846298218,-0.09603489190340042,-0.9027252197265625,0,0,0
2457426834,d4:22:cd:00:30:92,0.012194152921438217,-0.091185063123703,-0.18607614934444427,-0.9782203435897827,-0.8756856918334961,-0.27953335642814636,-0.5555963516235352,0,0,0
2457443501,d4:22:cd:00:30:92,0.013573717325925827,-0.09929865598678589,-0.18155133724212646,-0.9782623648643494,-0.813892126083374,-0.34261736273765564,-0.42636871337890625,0,0,0
2457460168,d4:22:cd:00:30:92,0.014598134905099869,-0.10734039545059204,-0.17671255767345428,-0.9782841801643372,-0.7994434833526611,-0.2316165566444397,-0.3678560256958008,0,0,0
2457476835,d4:22:cd:00:30:92,0.014643337577581406,-0.1153716892004013,-0.17157624661922455,-0.9782837629318237,-0.7394458055496216,-0.34686464071273804,-0.2507505416870117,0,0,0
2457493502,d4:22:cd:00:30:92,0.014306019991636276,-0.12327791005373001,-0.1658751666545868,-0.9783076643943787,-0.6332870125770569,-0.509270429611206,-0.2277202606201172,0,0,0
2457510169,d4:22:cd:00:30:92,0.013288117945194244,-0.13120989501476288,-0.1596449464559555,-0.9783267974853516,-0.4665345549583435,-0.3930501937866211,-0.2662925720214844,0,0,0
2457526836,d4:22:cd:00:30:92,0.011734917759895325,-0.1392713189125061,-0.15304619073867798,-0.9782869815826416,-0.39462149143218994,-0.39571553468704224,-0.36577510833740234,0,0,0
2457543503,d4:22:cd:00:30:92,0.009716376662254333,-0.14761456847190857,-0.14632266759872437,-0.9781143665313721,-0.34164223074913025,-0.3101595342159271,-0.37247371673583984,0,0,0
2457560170,d4:22:cd:00:30:92,0.0073321908712387085,-0.15626640617847443,-0.13951213657855988,-0.9777863025665283,-0.4143158495426178,-0.20054146647453308,-0.42845821380615234,0,0,0
2457576837,d4:22:cd:00:30:92,0.004798900336027145,-0.1652972400188446,-0.13271121680736542,-0.9772635698318481,-0.49876803159713745,-0.17567496001720428,-0.3410758972167969,0,0,0
2457593504,d4:22:cd:00:30:92,0.002461269497871399,-0.17468784749507904,-0.1261267364025116,-0.9765104651451111,-0.392343133687973,-0.06849748641252518,-0.22931575775146484,0,0,0
2457610171,d4:22:cd:00:30:92,0.00018014758825302124,-0.18452373147010803,-0.12002164125442505,-0.9754734039306641,-0.18613876402378082,0.04804595559835434,-0.24017810821533203,0,0,0
2457626838,d4:22:cd:00:30:92,-0.0021133199334144592,-0.19489333033561707,-0.11429401487112045,-0.974141538143158,-0.15113644301891327,0.01284394133836031,-0.2624340057373047,0,0,0
2457643505,d4:22:cd:00:30:92,-0.004243746399879456,-0.20584867894649506,-0.10857804119586945,-0.9725335240364075,-0.22139975428581238,-0.062042586505413055,-0.11681938171386719,0,0,0
2457660172,d4:22:cd:00:30:92,-0.006077177822589874,-0.21728377044200897,-0.1034545749425888,-0.9705927968025208,-0.23968663811683655,-0.1381845623254776,0.12519454956054688,0,0,0
2457676839,d4:22:cd:00:30:92,-0.007683545351028442,-0.2290147840976715,-0.09954923391342163,-0.9682901501655579,-0.07950664311647415,-0.036301158368587494,0.49421119689941406,0,0,0
2457693506,d4:22:cd:00:30:92,-0.00898878276348114,-0.24101974070072174,-0.0970236137509346,-0.9656177759170532,-0.06970637291669846,0.04998144879937172,0.24551105499267578,0,0,0
2457710173,d4:22:cd:00:30:92,-0.009952269494533539,-0.25356122851371765,-0.0959446057677269,-0.9624993205070496,-0.11422737687826157,-0.1303238421678543,-0.23507404327392578,0,0,0
2457726840,d4:22:cd:00:30:92,-0.01068674772977829,-0.26681673526763916,-0.09525634348392487,-0.9589699506759644,-0.2794564962387085,-0.4832998216152191,-0.11428260803222656,0,0,0
2457743507,d4:22:cd:00:30:92,-0.011609222739934921,-0.28052079677581787,-0.09301206469535828,-0.9552614688873291,-0.05286579579114914,-0.7519786357879639,0.43736934661865234,0,0,0
2457760174,d4:22:cd:00:30:92,-0.012899655848741531,-0.2943119406700134,-0.08766646683216095,-0.9515939950942993,0.1522233635187149,-0.7076646089553833,0.85784912109375,0,0,0
2457776841,d4:22:cd:00:30:92,-0.014464691281318665,-0.30800661444664,-0.08073006570339203,-0.9478437900543213,0.13087524473667145,-0.22762031853199005,0.8062477111816406,0,0,0
2457793508,d4:22:cd:00:30:92,-0.015500610694289207,-0.32164710760116577,-0.07450278848409653,-0.9437980651855469,-0.11320184916257858,0.32999420166015625,0.5294532775878906,0,0,0
2457810175,d4:22:cd:00:30:92,-0.015188219025731087,-0.3353807032108307,-0.07142586261034012,-0.9392497539520264,-0.39468592405319214,1.0989264249801636,0.34607601165771484,0,0,0
2457826842,d4:22:cd:00:30:92,-0.013293029740452766,-0.34932830929756165,-0.07255510985851288,-0.9340938329696655,-0.7189282774925232,0.9533595442771912,-0.16997146606445312,0,0,0
2457843509,d4:22:cd:00:30:92,-0.010246753692626953,-0.36369743943214417,-0.07648973166942596,-0.9283162951469421,-0.9451680183410645,0.19805079698562622,-0.45720577239990234,0,0,0
2457860176,d4:22:cd:00:30:92,-0.007131464779376984,-0.37816357612609863,-0.08058720827102661,-0.9221983551979065,-0.8746687173843384,-0.7834078669548035,0.007861137390136719,0,0,0
2457876843,d4:22:cd:00:30:92,-0.0050200894474983215,-0.3924681842327118,-0.08240927755832672,-0.9160539507865906,-0.5542941093444824,-1.2056821584701538,0.5847597122192383,0,0,0
2457893510,d4:22:cd:00:30:92,-0.004724379628896713,-0.40623438358306885,-0.08032563328742981,-0.9102205634117126,-0.3547669053077698,-1.2557363510131836,1.0851621627807617,0,0,0
2457910177,d4:22:cd:00:30:92,-0.006420232355594635,-0.419686496257782,-0.07444406300783157,-0.904589831829071,-0.5778381824493408,-0.9717555642127991,0.8061141967773438,0,0,0
2457926844,d4:22:cd:00:30:92,-0.009178295731544495,-0.4331011176109314,-0.06727206707000732,-0.8987860083580017,-1.0007808208465576,-0.28633400797843933,0.6916522979736328,0,0,0
2457943511,d4:22:cd:00:30:92,-0.01119280606508255,-0.4467601478099823,-0.06187538802623749,-0.8924428224563599,-1.3007867336273193,0.44763219356536865,0.6297779083251953,0,0,0
2457960178,d4:22:cd:00:30:92,-0.01131838746368885,-0.46063631772994995,-0.06037924438714981,-0.8854619264602661,-1.304977297782898,0.7378397583961487,0.6407737731933594,0,0,0
2457976845,d4:22:cd:00:30:92,-0.010116007179021835,-0.474696546792984,-0.06169566139578819,-0.8779277205467224,-0.9674288630485535,0.1902574896812439,0.6912870407104492,0,0,0
2457993512,d4:22:cd:00:30:92,-0.009165920317173004,-0.48868557810783386,-0.06301277875900269,-0.8701345324516296,-0.6669788956642151,-0.5553315877914429,1.101083755493164,0,0,0
2458010179,d4:22:cd:00:30:92,-0.009240053594112396,-0.5025383234024048,-0.062248460948467255,-0.8622629642486572,-0.48711955547332764,-0.8200632929801941,1.2330513000488281,0,0,0
2458026846,d4:22:cd:00:30:92,-0.009927988052368164,-0.5162988901138306,-0.060158826410770416,-0.8542367815971375,-0.299714058637619,-0.27905261516571045,1.1068477630615234,0,0,0
2458043513,d4:22:cd:00:30:92,-0.010819561779499054,-0.5300692319869995,-0.057652659714221954,-0.845924437046051,-0.2455216646194458,0.013551953248679638,0.8679828643798828,0,0,0
2458060180,d4:22:cd:00:30:92,-0.011371949687600136,-0.5438035130500793,-0.05546395480632782,-0.8373021483421326,-0.2035548835992813,0.19210565090179443,0.9233427047729492,0,0,0
2458076847,d4:22:cd:00:30:92,-0.011594530194997787,-0.5570375919342041,-0.05375286936759949,-0.8286663889884949,-0.056858401745557785,0.1987200677394867,1.1714601516723633,0,0,0
2458093514,d4:22:cd:00:30:92,-0.011564202606678009,-0.5696982741355896,-0.05231989920139313,-0.8201069235801697,0.2025381624698639,0.28483495116233826,1.2418146133422852,0,0,0
2458110181,d4:22:cd:00:30:92,-0.011545311659574509,-0.5817370414733887,-0.050848644226789474,-0.8117052912712097,0.4442606568336487,0.17129084467887878,1.0048751831054688,0,0,0
2458126848,d4:22:cd:00:30:92,-0.011602811515331268,-0.5932250022888184,-0.049136143177747726,-0.8034535646438599,0.6523524522781372,0.09513445943593979,0.7890539169311523,0,0,0
2458143515,d4:22:cd:00:30:92,-0.011582531034946442,-0.6042463779449463,-0.0471189022064209,-0.795320451259613,0.6088793277740479,0.3087223470211029,0.8076295852661133,0,0,0
2458160182,d4:22:cd:00:30:92,-0.011069811880588531,-0.6147270798683167,-0.0452369824051857,-0.7873653173446655,0.6147264242172241,0.568832516670227,0.7998514175415039,0,0,0
2458176849,d4:22:cd:00:30:92,-0.010208528488874435,-0.6244978904724121,-0.04354036599397659,-0.7797467708587646,0.24125343561172485,0.5985645055770874,0.6300601959228516,0,0,0
2458193516,d4:22:cd:00:30:92,-0.009519899263978004,-0.6337906122207642,-0.04110898822546005,-0.7723544239997864,-0.17812058329582214,0.5997305512428284,0.3044271469116211,0,0,0
2458210183,d4:22:cd:00:30:92,-0.008672218769788742,-0.6427482962608337,-0.038483113050460815,-0.7650628089904785,-0.6802888512611389,0.869918704032898,0.21250534057617188,0,0,0
2458226850,d4:22:cd:00:30:92,-0.007714783772826195,-0.6514096260070801,-0.036089904606342316,-0.7578296661376953,-0.8270976543426514,0.3484348952770233,0.5081148147583008,0,0,0
2458243517,d4:22:cd:00:30:92,-0.008147958666086197,-0.65951007604599,-0.032256387174129486,-0.7509607672691345,-0.39292111992836,-0.8016889095306396,0.6457366943359375,0,0,0
2458260184,d4:22:cd:00:30:92,-0.01002248004078865,-0.6672194600105286,-0.02672993764281273,-0.7443156242370605,0.04493243247270584,-0.5344500541687012,0.8409585952758789,0,0,0
2458276851,d4:22:cd:00:30:92,-0.012542042881250381,-0.6744773983955383,-0.020437248051166534,-0.7379077076911926,0.6130353808403015,-0.1162453144788742,0.8397121429443359,0,0,0
2458293518,d4:22:cd:00:30:92,-0.015658892691135406,-0.6809704303741455,-0.01371137797832489,-0.7320167422294617,0.9615216851234436,0.13217905163764954,0.8994178771972656,0,0,0
2458310185,d4:22:cd:00:30:92,-0.018766246736049652,-0.6867181658744812,-0.006936937570571899,-0.7266501784324646,0.9816409349441528,0.831975519657135,0.797297477722168,0,0,0
2458326852,d4:22:cd:00:30:92,-0.02084319479763508,-0.6917408108711243,-0.0014819055795669556,-0.721845269203186,0.7610943913459778,1.1016839742660522,0.6363162994384766,0,0,0
2458343519,d4:22:cd:00:30:92,-0.021311447024345398,-0.6960654258728027,0.0018158741295337677,-0.7176615595817566,0.7487195134162903,0.6797229051589966,0.4048795700073242,0,0,0
2458360186,d4:22:cd:00:30:92,-0.020926032215356827,-0.6999291777610779,0.00394175760447979,-0.7138964533805847,0.9897297620773315,0.0014645267510786653,0.090911865234375,0,0,0
2458376853,d4:22:cd:00:30:92,-0.020432109013199806,-0.703385055065155,0.0056707896292209625,-0.710494339466095,1.2087647914886475,-0.45702001452445984,0.13869476318359375,0,0,0
2458393520,d4:22:cd:00:30:92,-0.021029841154813766,-0.7063208222389221,0.0081255454570055,-0.7075344920158386,1.316936731338501,-0.9676026701927185,0.18136978149414062,0,0,0
2458410187,d4:22:cd:00:30:92,-0.02288965880870819,-0.7086502313613892,0.011773720383644104,-0.705092191696167,1.2480599880218506,-0.8080254793167114,0.08046627044677734,0,0,0
2458426854,d4:22:cd:00:30:92,-0.024649225175380707,-0.71065354347229,0.015426022931933403,-0.7029426693916321,1.116497278213501,-0.048798609524965286,-0.33531856536865234,0,0,0
2458443521,d4:22:cd:00:30:92,-0.025429876521229744,-0.7123757004737854,0.017648765817284584,-0.7011170983314514,1.0268282890319824,0.3574167490005493,-0.5922412872314453,0,0,0
2458460188,d4:22:cd:00:30:92,-0.025529339909553528,-0.7136750817298889,0.018349729478359222,-0.6997728943824768,1.145788550376892,0.008272815495729446,-0.3747892379760742,0,0,0
2458476855,d4:22:cd:00:30:92,-0.026163291186094284,-0.7142469882965088,0.018702220171689987,-0.6991562843322754,1.1817388534545898,-0.7147281169891357,0.05854511260986328,0,0,0
2458493522,d4:22:cd:00:30:92,-0.027358846738934517,-0.7141744494438171,0.019179126247763634,-0.6991718411445618,1.2569661140441895,-0.9406005144119263,-0.03557872772216797,0,0,0
2458510189,d4:22:cd:00:30:92,-0.02893133834004402,-0.7137786746025085,0.020019089803099632,-0.6994889378547668,1.398320198059082,-0.9191126823425293,-0.29570865631103516,0,0,0
2458526856,d4:22:cd:00:30:92,-0.030996236950159073,-0.7130659818649292,0.02125719003379345,-0.7000906467437744,1.5238476991653442,-0.7002516984939575,-0.36145591735839844,0,0,0
2458543523,d4:22:cd:00:30:92,-0.03286445885896683,-0.7119143009185791,0.02223038300871849,-0.7011464834213257,1.6771862506866455,-0.05931897088885307,0.11262130737304688,0,0,0
2458560190,d4:22:cd:00:30:92,-0.033990684896707535,-0.7099102735519409,0.022235285490751266,-0.7031217217445374,1.8710956573486328,0.0730469822883606,0.34192562103271484,0,0,0
2458576857,d4:22:cd:00:30:92,-0.03427783027291298,-0.7071061730384827,0.02135925181210041,-0.705954909324646,2.0231690406799316,-0.19331000745296478,0.14467239379882812,0,0,0
2458593524,d4:22:cd:00:30:92,-0.03411903977394104,-0.7035424113273621,0.019987259060144424,-0.7095540165901184,2.2833805084228516,-0.3938594162464142,0.19108009338378906,0,0,0
2458610191,d4:22:cd:00:30:92,-0.034889254719018936,-0.698854386806488,0.01899055764079094,-0.7141618728637695,2.4144325256347656,-1.0842490196228027,0.6727762222290039,0,0,0
2458626858,d4:22:cd:00:30:92,-0.03784364089369774,-0.6929628849029541,0.019827477633953094,-0.7197080254554749,2.2710728645324707,-1.229676604270935,0.6599187850952148,0,0,0
2458643525,d4:22:cd:00:30:92,-0.041137389838695526,-0.6866177320480347,0.0218362957239151,-0.7255269885063171,1.9593932628631592,-0.32538384199142456,0.38135623931884766,0,0,0
2458660192,d4:22:cd:00:30:92,-0.043150074779987335,-0.6797180771827698,0.022935884073376656,-0.731845498085022,2.1389236450195312,-0.1040317714214325,0.45384788513183594,0,0,0
2458676859,d4:22:cd:00:30:92,-0.045294951647520065,-0.6713852286338806,0.023527689278125763,-0.7393506765365601,2.2636964321136475,-0.8660178780555725,1.4297780990600586,0,0,0
2458693526,d4:22:cd:00:30:92,-0.0491006001830101,-0.6613167524337769,0.025240018963813782,-0.7480740547180176,2.308163642883301,-0.7080972194671631,1.3068866729736328,0,0,0
2458710193,d4:22:cd:00:30:92,-0.05218884348869324,-0.6504994034767151,0.026574373245239258,-0.7572472095489502,2.036625623703003,0.10860234498977661,1.0518407821655273,0,0,0
2458726860,d4:22:cd:00:30:92,-0.05370878800749779,-0.6390263438224792,0.026242250576615334,-0.7668601870536804,1.857118010520935,0.0010940679349005222,1.202570915222168,0,0,0
2458743527,d4:22:cd:00:30:92,-0.05566316097974777,-0.6261155605316162,0.025776905938982964,-0.7773153781890869,1.7814847230911255,-1.1478915214538574,1.647216796875,0,0,0
2458760194,d4:22:cd:00:30:92,-0.06044091284275055,-0.6112854480743408,0.02750466577708721,-0.7886210680007935,1.3321425914764404,-1.1208752393722534,1.6586875915527344,0,0,0
2458776861,d4:22:cd:00:30:92,-0.06545847654342651,-0.5958471298217773,0.02991088479757309,-0.7998682260513306,0.6925288438796997,0.1859772503376007,1.085723876953125,0,0,0
2458793528,d4:22:cd:00:30:92,-0.06831784546375275,-0.5800241231918335,0.02936372719705105,-0.8111997842788696,0.9660054445266724,0.9236675500869751,1.0569229125976562,0,0,0
2458810195,d4:22:cd:00:30:92,-0.0699210986495018,-0.5628907084465027,0.025096995756030083,-0.8231876492500305,0.9197508692741394,0.264162540435791,1.9209556579589844,0,0,0
2458826862,d4:22:cd:00:30:92,-0.07227885723114014,-0.5439795851707458,0.020027825608849525,-0.8357412219047546,0.7789778709411621,-0.4748791456222534,2.14107608795166,0,0,0
2458843529,d4:22:cd:00:30:92,-0.0758887529373169,-0.523984432220459,0.01642005518078804,-0.8481829166412354,0.2237953245639801,-0.6718624830245972,1.5500402450561523,0,0,0
2458860196,d4:22:cd:00:30:92,-0.07933196425437927,-0.5039098262786865,0.013914386741816998,-0.8599942922592163,0.07851608097553253,0.14247456192970276,1.1031503677368164,0,0,0
2458876863,d4:22:cd:00:30:92,-0.08248317986726761,-0.4831785261631012,0.010811526328325272,-0.8715621829032898,-0.5930142998695374,0.2558682858943939,2.1129636764526367,0,0,0
2458893530,d4:22:cd:00:30:92,-0.08630307763814926,-0.46081387996673584,0.007920656353235245,-0.8832566142082214,-0.7397910952568054,0.23021532595157623,2.8092517852783203,0,0,0
2458910197,d4:22:cd:00:30:92,-0.09121091663837433,-0.4361931383609772,0.005270796827971935,-0.895204484462738,-1.2601501941680908,0.35887110233306885,3.1631345748901367,0,0,0
2458926864,d4:22:cd:00:30:92,-0.09711199998855591,-0.40948349237442017,0.003435674123466015,-0.9071292877197266,-1.511672854423523,0.08253612369298935,2.6658315658569336,0,0,0
2458943531,d4:22:cd:00:30:92,-0.10349376499652863,-0.38138705492019653,0.0022654784843325615,-0.9186024069786072,-1.6496026515960693,0.3402124345302582,1.7306928634643555,0,0,0
2458960198,d4:22:cd:00:30:92,-0.10916359722614288,-0.352996826171875,0.0007414296269416809,-0.929235577583313,-1.8636730909347534,1.0597336292266846,1.1104888916015625,0,0,0
2458976865,d4:22:cd:00:30:92,-0.11347899585962296,-0.32486850023269653,-0.0024702707305550575,-0.9389245510101318,-1.9425716400146484,1.6230943202972412,1.2635726928710938,0,0,0
2458993532,d4:22:cd:00:30:92,-0.11667151004076004,-0.2965807616710663,-0.007640397176146507,-0.9478248357772827,-2.1151087284088135,1.2317768335342407,1.9821090698242188,0,0,0
2459010199,d4:22:cd:00:30:92,-0.11938969790935516,-0.26761773228645325,-0.013383527286350727,-0.9560074806213379,-2.4478583335876465,0.7298136949539185,2.0741233825683594,0,0,0
2459026866,d4:22:cd:00:30:92,-0.1219925507903099,-0.23824861645698547,-0.018204979598522186,-0.9633414149284363,-2.730679988861084,0.3096400201320648,1.1308412551879883,0,0,0
2459043533,d4:22:cd:00:30:92,-0.1245364099740982,-0.20907610654830933,-0.022044576704502106,-0.969687819480896,-2.6835954189300537,0.13611331582069397,0.21213340759277344,0,0,0
2459060200,d4:22:cd:00:30:92,-0.12723174691200256,-0.17987312376499176,-0.026389341801404953,-0.975071132183075,-2.408156394958496,0.35398104786872864,0.2868766784667969,0,0,0
2459076867,d4:22:cd:00:30:92,-0.13009805977344513,-0.150498166680336,-0.031181417405605316,-0.9795177578926086,-2.768234968185425,0.36291685700416565,0.7549810409545898,0,0,0
2459093534,d4:22:cd:00:30:92,-0.13296324014663696,-0.12080355733633041,-0.03651179000735283,-0.9830546975135803,-2.8000400066375732,0.37488028407096863,0.7034778594970703,0,0,0
2459110201,d4:22:cd:00:30:92,-0.13593563437461853,-0.09106260538101196,-0.041902799159288406,-0.9856346249580383,-2.785459518432617,0.14163339138031006,0.48488521575927734,0,0,0
2459126868,d4:22:cd:00:30:92,-0.13917049765586853,-0.06112378463149071,-0.04689812660217285,-0.9872682094573975,-2.844269275665283,0.015455871820449829,-0.1433572769165039,0,0,0
2459143535,d4:22:cd:00:30:92,-0.14254853129386902,-0.03134993091225624,-0.051375288516283035,-0.9879575967788696,-2.7051360607147217,0.2909317910671234,-0.6047849655151367,0,0,0
2459160202,d4:22:cd:00:30:92,-0.14616912603378296,-0.002052291063591838,-0.05617702007293701,-0.9876624941825867,-2.54512095451355,0.09554854780435562,-0.8525104522705078,0,0,0
2459176869,d4:22:cd:00:30:92,-0.1500391662120819,0.026759151369333267,-0.0607684962451458,-0.9864492416381836,-2.4953231811523438,-0.09050210565328598,-0.8586130142211914,0,0,0
2459193536,d4:22:cd:00:30:92,-0.1540079414844513,0.05518264323472977,-0.06531611829996109,-0.9843641519546509,-2.4733667373657227,0.19820642471313477,-0.9685678482055664,0,0,0
2459210203,d4:22:cd:00:30:92,-0.15813177824020386,0.08299523591995239,-0.07010223716497421,-0.9814245700836182,-2.130699396133423,-0.12141939252614975,-1.1995019912719727,0,0,0
2459226870,d4:22:cd:00:30:92,-0.16246271133422852,0.10996686667203903,-0.07478771358728409,-0.9777128100395203,-1.8534462451934814,-0.21027018129825592,-1.332200050354004,0,0,0
2459243537,d4:22:cd:00:30:92,-0.16731292009353638,0.13599474728107452,-0.07984858751296997,-0.9732104539871216,-1.5960917472839355,-0.2758954167366028,-1.551051139831543,0,0,0
2459260204,d4:22:cd:00:30:92,-0.1725526750087738,0.1609659641981125,-0.08541841059923172,-0.9679989218711853,-1.235068678855896,-0.1577354222536087,-1.6084461212158203,0,0,0
2459276871,d4:22:cd:00:30:92,-0.17818458378314972,0.18481707572937012,-0.09126755595207214,-0.9621672034263611,-1.0463589429855347,-0.36509692668914795,-1.5970573425292969,0,0,0
2459293538,d4:22:cd:00:30:92,-0.18397082388401031,0.2074538767337799,-0.09647665172815323,-0.9559353590011597,-0.9783695340156555,-0.534946858882904,-1.542353630065918,0,0,0
2459310205,d4:22:cd:00:30:92,-0.1894696056842804,0.22894875705242157,-0.10018046945333481,-0.949552595615387,-0.6948585510253906,-0.7827757000923157,-1.715134620666504,0,0,0
2459326872,d4:22:cd:00:30:92,-0.19448550045490265,0.24908305704593658,-0.10270433872938156,-0.9431792497634888,-0.4819968044757843,-0.29983827471733093,-1.653853416442871,0,0,0
2459343539,d4:22:cd:00:30:92,-0.1999804824590683,0.2678302228450775,-0.10665072500705719,-0.9364309310913086,-0.23791998624801636,0.5639042854309082,-1.6275596618652344,0,0,0
2459360206,d4:22:cd:00:30:92,-0.2067142128944397,0.28516465425491333,-0.11356891691684723,-0.9290074706077576,-0.12564049661159515,0.8534162044525146,-1.492889404296875,0,0,0
2459376873,d4:22:cd:00:30:92,-0.21385912597179413,0.3014024496078491,-0.12111050635576248,-0.9212793111801147,-0.1007557138800621,0.2319761961698532,-1.3764190673828125,0,0,0
2459393540,d4:22:cd:00:30:92,-0.21958337724208832,0.31699639558792114,-0.12537845969200134,-0.914100170135498,0.20596972107887268,-0.5900155305862427,-1.4620599746704102,0,0,0
2459410207,d4:22:cd:00:30:92,-0.22305288910865784,0.33152490854263306,-0.1253172755241394,-0.908095121383667,0.7972087860107422,-1.0399569272994995,-1.4519729614257812,0,0,0
2459426874,d4:22:cd:00:30:92,-0.22514165937900543,0.3442729413509369,-0.12403464317321777,-0.9029979109764099,1.605886459350586,0.011400055140256882,-1.6811037063598633,0,0,0
2459443541,d4:22:cd:00:30:92,-0.22861695289611816,0.35434210300445557,-0.12702299654483795,-0.8977993726730347,2.2551982402801514,1.9515715837478638,-1.6995134353637695,0,0,0
2459460208,d4:22:cd:00:30:92,-0.2338220626115799,0.36201250553131104,-0.13454559445381165,-0.8922858834266663,1.662833571434021,1.0258592367172241,-1.5206193923950195,0,0,0
2459476875,d4:22:cd:00:30:92,-0.23821687698364258,0.36825722455978394,-0.14151568710803986,-0.8874767422676086,1.1515413522720337,-0.4102709889411926,-1.096348762512207,0,0,0
2459493542,d4:22:cd:00:30:92,-0.2400215119123459,0.3736402094364166,-0.14456500113010406,-0.8842431902885437,1.1575816869735718,-1.1533769369125366,-0.7497034072875977,0,0,0
2459510209,d4:22:cd:00:30:92,-0.23948688805103302,0.37812602519989014,-0.14380179345607758,-0.8826042413711548,1.6427327394485474,-1.0208383798599243,-0.9844627380371094,0,0,0
2459526876,d4:22:cd:00:30:92,-0.23828251659870148,0.3810620903968811,-0.14207154512405396,-0.88194739818573,2.159965991973877,-0.058548491448163986,-1.3743877410888672,0,0,0
2459543543,d4:22:cd:00:30:92,-0.23850978910923004,0.38190335035324097,-0.14294348657131195,-0.8813810348510742,2.3112752437591553,0.5747641921043396,-1.4547395706176758,0,0,0
2459560210,d4:22:cd:00:30:92,-0.23931752145290375,0.38114118576049805,-0.14520025253295898,-0.8811230063438416,1.6085035800933838,-0.07246178388595581,-1.1474409103393555,0,0,0
2459576877,d4:22:cd:00:30:92,-0.2391459196805954,0.3794393539428711,-0.14631399512290955,-0.8817196488380432,1.141176700592041,-0.5265532732009888,-0.8073358535766602,0,0,0
2459593544,d4:22:cd:00:30:92,-0.23817899823188782,0.37705299258232117,-0.14624176919460297,-0.8830161690711975,0.9368097186088562,-0.4166063666343689,-0.695704460144043,0,0,0
2459610211,d4:22:cd:00:30:92,-0.2373843640089035,0.3742738366127014,-0.14621229469776154,-0.8844163417816162,0.46180737018585205,-0.11341813206672668,-0.6281871795654297,0,0,0
2459626878,d4:22:cd:00:30:92,-0.23699024319648743,0.3715633153915405,-0.14631077647209167,-0.8856478929519653,0.06273414939641953,-0.2639363408088684,-0.46402454376220703,0,0,0
2459643545,d4:22:cd:00:30:92,-0.23655438423156738,0.3691771626472473,-0.14565624296665192,-0.8868692517280579,0.06648832559585571,-0.3803594708442688,-0.27098560333251953,0,0,0
2459660212,d4:22:cd:00:30:92,-0.23580969870090485,0.36712396144866943,-0.14361326396465302,-0.8882520198822021,0.2719799876213074,-0.6616596579551697,-0.049560546875,0,0,0
2459676879,d4:22:cd:00:30:92,-0.23482459783554077,0.36506807804107666,-0.1407983899116516,-0.8898096084594727,0.46357834339141846,-0.28505438566207886,0.14394760131835938,0,0,0
2459693546,d4:22:cd:00:30:92,-0.23408111929893494,0.3628257215023041,-0.13863611221313477,-0.8912609815597534,0.6135854125022888,0.1253010779619217,-0.026533126831054688,0,0,0
2459710213,d4:22:cd:00:30:92,-0.2337127923965454,0.36010727286338806,-0.13772140443325043,-0.8926008343696594,0.7094424366950989,0.255219042301178,-0.16005229949951172,0,0,0
2459726880,d4:22:cd:00:30:92,-0.23336628079414368,0.35707953572273254,-0.13732197880744934,-0.893968403339386,0.3634558618068695,-0.1855359822511673,-0.13608837127685547,0,0,0
2459743547,d4:22:cd:00:30:92,-0.23253151774406433,0.3541395962238312,-0.1361856907606125,-0.8955278396606445,0.057764869183301926,-0.45215240120887756,0.12055015563964844,0,0,0
2459760214,d4:22:cd:00:30:92,-0.23122617602348328,0.3512585759162903,-0.1342928409576416,-0.8972846865653992,0.10833507031202316,-0.18141059577465057,0.15944290161132812,0,0,0
2459776881,d4:22:cd:00:30:92,-0.22954392433166504,0.34811699390411377,-0.13231563568115234,-0.8992326855659485,0.47129887342453003,0.0810466930270195,-0.06081867218017578,0,0,0
2459793548,d4:22:cd:00:30:92,-0.22741329669952393,0.3444058299064636,-0.13025817275047302,-0.9015005826950073,0.7298583388328552,0.06650549918413162,-0.2628488540649414,0,0,0
2459810215,d4:22:cd:00:30:92,-0.22512418031692505,0.339865118265152,-0.12873196601867676,-0.9040141105651855,0.7690608501434326,0.20212315022945404,-0.2716388702392578,0,0,0
2459826882,d4:22:cd:00:30:92,-0.2229100912809372,0.3346748352050781,-0.1283067762851715,-0.9065559506416321,0.6209446787834167,0.25838640332221985,-0.1868734359741211,0,0,0
2459843549,d4:22:cd:00:30:92,-0.2203591763973236,0.3289542496204376,-0.1279599815607071,-0.9093182682991028,0.6366376280784607,0.044589437544345856,-0.3220844268798828,0,0,0
2459860216,d4:22:cd:00:30:92,-0.2167081981897354,0.32240524888038635,-0.12652140855789185,-0.9127362966537476,1.039778470993042,-0.24535313248634338,-0.5682859420776367,0,0,0
2459876883,d4:22:cd:00:30:92,-0.2118867039680481,0.31460458040237427,-0.12391114234924316,-0.916938841342926,1.3029121160507202,-0.01834152825176716,-0.6894950866699219,0,0,0
2459893550,d4:22:cd:00:30:92,-0.20635491609573364,0.3053830564022064,-0.12125837057828903,-0.9216603636741638,1.1704533100128174,0.26816636323928833,-0.685028076171875,0,0,0
2459910217,d4:22:cd:00:30:92,-0.20066103339195251,0.29484596848487854,-0.11999918520450592,-0.9265007972717285,0.9155505299568176,0.6865324378013611,-0.6520156860351562,0,0,0
2459926884,d4:22:cd:00:30:92,-0.19476602971553802,0.2831621766090393,-0.1199723333120346,-0.9313939213752747,0.9368022680282593,0.3442131280899048,-0.8555984497070312,0,0,0
2459943551,d4:22:cd:00:30:92,-0.18798458576202393,0.2701757252216339,-0.1190633475780487,-0.9367462992668152,1.2355108261108398,-0.29767856001853943,-1.2029533386230469,0,0,0
2459960218,d4:22:cd:00:30:92,-0.18012735247612,0.25560566782951355,-0.11639176309108734,-0.9426959156990051,1.2942129373550415,-0.3467668294906616,-1.3924646377563477,0,0,0
2459976885,d4:22:cd:00:30:92,-0.1717742681503296,0.2394999861717224,-0.11318956315517426,-0.9488541483879089,0.9929152727127075,0.010056573897600174,-1.359827995300293,0,0,0
2459993552,d4:22:cd:00:30:92,-0.16324494779109955,0.22197434306144714,-0.11052514612674713,-0.95491623878479,0.7079033851623535,0.27742424607276917,-1.4443225860595703,0,0,0
2460010219,d4:22:cd:00:30:92,-0.15470293164253235,0.2029442936182022,-0.10880620777606964,-0.9607518911361694,0.7179279923439026,0.35090571641921997,-1.7652473449707031,0,0,0
2460026886,d4:22:cd:00:30:92,-0.14605358242988586,0.1823877990245819,-0.10738826543092728,-0.9663711190223694,0.46041935682296753,0.016732152551412582,-1.8341898918151855,0,0,0
2460043553,d4:22:cd:00:30:92,-0.13692694902420044,0.16055229306221008,-0.10539532452821732,-0.9717862010002136,0.062962606549263,-0.27894696593284607,-1.697464942932129,0,0,0
2460060220,d4:22:cd:00:30:92,-0.12719696760177612,0.13761000335216522,-0.10243118554353714,-0.9769313335418701,-0.12412374466657639,-0.2809734642505646,-1.6679182052612305,0,0,0
2460076887,d4:22:cd:00:30:92,-0.11687714606523514,0.1133756935596466,-0.09838540852069855,-0.981737494468689,-0.04542912170290947,-0.09018022567033768,-1.90488862991333,0,0,0
2460093554,d4:22:cd:00:30:92,-0.10620850324630737,0.0878068059682846,-0.09396091103553772,-0.9859937429428101,-0.242927685379982,0.3719986379146576,-1.9836273193359375,0,0,0
2460110221,d4:22:cd:00:30:92,-0.0955938994884491,0.06153397634625435,-0.0898561179637909,-0.9894460439682007,-0.8453389406204224,0.4898819625377655,-1.5546598434448242,0,0,0
2460126888,d4:22:cd:00:30:92,-0.08522367477416992,0.035060349851846695,-0.08690784126520157,-0.9919461607933044,-1.342867136001587,0.485236793756485,-1.0063724517822266,0,0,0
2460143555,d4:22:cd:00:30:92,-0.07512608170509338,0.008414272218942642,-0.08455701172351837,-0.9935481548309326,-1.3057265281677246,0.0783395916223526,-1.0698356628417969,0,0,0
2460160222,d4:22:cd:00:30:92,-0.06513530015945435,-0.018778178840875626,-0.0816585123538971,-0.994353711605072,-1.2301702499389648,-0.4730246663093567,-1.5356130599975586,0,0,0
2460176889,d4:22:cd:00:30:92,-0.055445559322834015,-0.04689744859933853,-0.0782032459974289,-0.994290292263031,-1.2951629161834717,-0.8035731911659241,-1.6845512390136719,0,0,0
2460193556,d4:22:cd:00:30:92,-0.04598837345838547,-0.0757736936211586,-0.07441097497940063,-0.993281900882721,-1.7887318134307861,-0.5762951970100403,-1.099085807800293,0,0,0
2460210223,d4:22:cd:00:30:92,-0.03658923879265785,-0.10495523363351822,-0.07029096782207489,-0.991316020488739,-2.0212409496307373,-0.19931700825691223,-0.5432653427124023,0,0,0
2460226890,d4:22:cd:00:30:92,-0.027261972427368164,-0.13440020382404327,-0.06552959233522415,-0.9883836507797241,-2.0532078742980957,-0.2019132673740387,-0.3975343704223633,0,0,0
2460243557,d4:22:cd:00:30:92,-0.0182633213698864,-0.16391855478286743,-0.060963429510593414,-0.9844202995300293,-2.184772253036499,0.008711442351341248,-0.4351997375488281,0,0,0
2460260224,d4:22:cd:00:30:92,-0.009743478149175644,-0.19303838908672333,-0.05727703496813774,-0.9794707894325256,-2.5341577529907227,0.07499422132968903,-0.027339935302734375,0,0,0
2460276891,d4:22:cd:00:30:92,-0.0015483386814594269,-0.22131621837615967,-0.054662831127643585,-0.9736690521240234,-2.4211807250976562,0.1824057698249817,0.3759794235229492,0,0,0
2460293558,d4:22:cd:00:30:92,0.005994882434606552,-0.2485707849264145,-0.051847729831933975,-0.9672079086303711,-2.111215114593506,-0.4094300866127014,0.622136116027832,0,0,0
2460310225,d4:22:cd:00:30:92,0.01229972392320633,-0.27453258633613586,-0.04729286581277847,-0.9603365659713745,-2.126560926437378,-0.8413980007171631,1.044717788696289,0,0,0
2460326892,d4:22:cd:00:30:92,0.0171140655875206,-0.29891395568847656,-0.0417703315615654,-0.953213095664978,-2.243710994720459,-0.5168493986129761,0.9591598510742188,0,0,0
2460343559,d4:22:cd:00:30:92,0.02027156949043274,-0.3214041590690613,-0.03655630350112915,-0.9460203647613525,-2.1230406761169434,-0.2822027802467346,1.1935672760009766,0,0,0
2460360226,d4:22:cd:00:30:92,0.021875739097595215,-0.3419851064682007,-0.031154366210103035,-0.9389353394508362,-2.1057016849517822,-0.6478163599967957,1.2018938064575195,0,0,0
2460376893,d4:22:cd:00:30:92,0.02169925719499588,-0.36083608865737915,-0.025077439844608307,-0.9320409297943115,-1.6077500581741333,-0.8845540881156921,1.1752872467041016,0,0,0
2460393560,d4:22:cd:00:30:92,0.01962985098361969,-0.378018319606781,-0.017683014273643494,-0.9254223704338074,-1.1421602964401245,-0.7555047273635864,1.5788536071777344,0,0,0
2460410227,d4:22:cd:00:30:92,0.01589992642402649,-0.39346474409103394,-0.008305598050355911,-0.919166088104248,-0.7926117181777954,-0.6419495344161987,1.7735719680786133,0,0,0
2460426894,d4:22:cd:00:30:92,0.011286601424217224,-0.4078340232372284,0.0015252437442541122,-0.9129864573478699,-0.7574189901351929,0.007685074117034674,0.9980525970458984,0,0,0
2460443561,d4:22:cd:00:30:92,0.007161617279052734,-0.42227521538734436,0.009258962236344814,-0.9063935875892639,-1.3202112913131714,1.0701218843460083,0.14275455474853516,0,0,0
2460460228,d4:22:cd:00:30:92,0.004462577402591705,-0.436960369348526,0.012990782037377357,-0.8993772864341736,-1.570912480354309,1.0929219722747803,0.1274271011352539,0,0,0
2460476895,d4:22:cd:00:30:92,0.0024526603519916534,-0.45144686102867126,0.013887683860957623,-0.8921878337860107,-0.8608114123344421,-0.0022202241234481335,0.733647346496582,0,0,0
2460493562,d4:22:cd:00:30:92,0.00029988959431648254,-0.46544909477233887,0.014111674390733242,-0.8849635124206543,0.004232592880725861,-0.7114185690879822,1.282242774963379,0,0,0
2460510229,d4:22:cd:00:30:92,-0.0023729950189590454,-0.47923052310943604,0.014702539891004562,-0.8775643110275269,0.21719500422477722,-0.8707464933395386,1.1329355239868164,0,0,0
2460526896,d4:22:cd:00:30:92,-0.005409251898527145,-0.49338364601135254,0.01570509932935238,-0.8696545958518982,-0.016531171277165413,-0.54836505651474,0.5986270904541016,0,0,0
2460543563,d4:22:cd:00:30:92,-0.008067801594734192,-0.508085310459137,0.015307629480957985,-0.8611343502998352,-0.4188995063304901,-0.07643824815750122,0.3748464584350586,0,0,0
2460560230,d4:22:cd:00:30:92,-0.009561959654092789,-0.5233256220817566,0.012336346320807934,-0.8519913554191589,-0.7452788352966309,0.40885594487190247,0.6453018188476562,0,0,0
2460576897,d4:22:cd:00:30:92,-0.009139686822891235,-0.5388333797454834,0.00671442411839962,-0.8423374891281128,-0.6322311758995056,0.5511011481285095,1.0773706436157227,0,0,0
2460593564,d4:22:cd:00:30:92,-0.00630926713347435,-0.5545094013214111,-0.0006883479654788971,-0.8321545720100403,-0.36319905519485474,0.3975539803504944,1.5023393630981445,0,0,0
2460610231,d4:22:cd:00:30:92,-0.001964416354894638,-0.5700467228889465,-0.008151957765221596,-0.8215709924697876,0.31793299317359924,-0.224867045879364,2.016108512878418,0,0,0
2460626898,d4:22:cd:00:30:92,0.002099689096212387,-0.5847674608230591,-0.013581115752458572,-0.811086118221283,0.9117555618286133,-0.8592556715011597,2.650360107421875,0,0,0
2460643565,d4:22:cd:00:30:92,0.004529692232608795,-0.5984026789665222,-0.01584627665579319,-0.8010276556015015,1.0489108562469482,-1.2748738527297974,2.656587600708008,0,0,0
2460660232,d4:22:cd:00:30:92,0.005548801273107529,-0.610937237739563,-0.015994329005479813,-0.7914994955062866,0.8346795439720154,-0.7745987772941589,2.2280187606811523,0,0,0
2460676899,d4:22:cd:00:30:92,0.006000876426696777,-0.6225860118865967,-0.015859492123126984,-0.7823692560195923,0.1579083800315857,-0.6172162294387817,1.738698959350586,0,0,0
2460693566,d4:22:cd:00:30:92,0.0060353465378284454,-0.6334930658340454,-0.015470391139388084,-0.7735719084739685,0.2603474259376526,-0.36887985467910767,1.8255252838134766,0,0,0
2460710233,d4:22:cd:00:30:92,0.006249133497476578,-0.6434614658355713,-0.015501318499445915,-0.7652977705001831,0.9770641922950745,0.014626352116465569,1.8559904098510742,0,0,0
2460726900,d4:22:cd:00:30:92,0.0061946772038936615,-0.6521844267845154,-0.015337781980633736,-0.7578815817832947,1.690659999847412,-0.11839272081851959,1.7503890991210938,0,0,0
2460743567,d4:22:cd:00:30:92,0.005281645804643631,-0.6597687005996704,-0.01401672326028347,-0.7513211965560913,1.5333114862442017,-0.22758103907108307,1.511937141418457,0,0,0
2460760234,d4:22:cd:00:30:92,0.0037830695509910583,-0.666655421257019,-0.011574126780033112,-0.7452682852745056,1.4653072357177734,-0.06417297571897507,1.1867456436157227,0,0,0
2460776901,d4:22:cd:00:30:92,0.0017314143478870392,-0.6729235649108887,-0.007988136261701584,-0.7396685481071472,0.9756340384483337,-0.3865019679069519,0.7627449035644531,0,0,0
2460793568,d4:22:cd:00:30:92,-0.0003906264901161194,-0.6789388656616211,-0.003957036882638931,-0.7341856956481934,-0.008291905745863914,-0.021016644313931465,0.6600055694580078,0,0,0
2460810235,d4:22:cd:00:30:92,-0.0016696080565452576,-0.6847479343414307,-0.0007173717021942139,-0.7287794947624207,-0.056761931627988815,0.13667744398117065,0.5144319534301758,0,0,0
2460826902,d4:22:cd:00:30:92,-0.0024557877331972122,-0.6899430155754089,0.0018040332943201065,-0.7238590121269226,0.6225684881210327,-0.01895338110625744,0.5257062911987305,0,0,0
2460843569,d4:22:cd:00:30:92,-0.0035620220005512238,-0.6944716572761536,0.004871999844908714,-0.7194966077804565,1.0262724161148071,0.013467060402035713,0.4855613708496094,0,0,0
2460860236,d4:22:cd:00:30:92,-0.005311712622642517,-0.6984317302703857,0.008947126567363739,-0.715602695941925,1.024232029914856,-0.24299272894859314,0.48134613037109375,0,0,0
2460876903,d4:22:cd:00:30:92,-0.007563682273030281,-0.7020246982574463,0.01390635222196579,-0.7119783759117126,0.7128101587295532,-0.18744395673274994,0.2826700210571289,0,0,0
2460893570,d4:22:cd:00:30:92,-0.009645884856581688,-0.7052741050720215,0.01859196648001671,-0.7086269855499268,0.5331864356994629,0.09219304472208023,0.10671329498291016,0,0,0
2460910237,d4:22:cd:00:30:92,-0.010774495080113411,-0.7079259753227234,0.021579423919320107,-0.7058764100074768,0.6684214472770691,0.4133498966693878,0.05139350891113281,0,0,0
2460926904,d4:22:cd:00:30:92,-0.010513555258512497,-0.7097854018211365,0.02244402840733528,-0.7039836049079895,1.2378582954406738,0.3426913619041443,-0.03531932830810547,0,0,0
2460943571,d4:22:cd:00:30:92,-0.01004478707909584,-0.7107625603675842,0.022413596510887146,-0.7030048370361328,1.8584142923355103,-0.45052722096443176,-0.047966957092285156,0,0,0
2460960238,d4:22:cd:00:30:92,-0.01110815443098545,-0.7110210061073303,0.023488499224185944,-0.7026923894882202,1.967719554901123,-1.2432408332824707,-0.2653541564941406,0,0,0
2460976905,d4:22:cd:00:30:92,-0.013720670714974403,-0.7109644412994385,0.02607657015323639,-0.7026122212409973,1.9494190216064453,-0.9889442324638367,-0.48786258697509766,0,0,0
2460993572,d4:22:cd:00:30:92,-0.01615627482533455,-0.7105455994606018,0.028580740094184875,-0.702886700630188,1.8973873853683472,-0.1452406346797943,-0.35022544860839844,0,0,0
2461010239,d4:22:cd:00:30:92,-0.01690886914730072,-0.70942223072052,0.028826570138335228,-0.7039928436279297,2.09041166305542,0.44866660237312317,-0.3008852005004883,0,0,0
2461026906,d4:22:cd:00:30:92,-0.017168303951621056,-0.7072917819023132,0.027510756626725197,-0.7061793208122253,2.146441698074341,-0.151546910405159,0.08592700958251953,0,0,0
2461043573,d4:22:cd:00:30:92,-0.01848386973142624,-0.7039485573768616,0.026038510724902153,-0.7095345258712769,2.0942153930664062,-0.9599798917770386,0.25412940979003906,0,0,0
2461060240,d4:22:cd:00:30:92,-0.021201740950345993,-0.6998963356018066,0.025835532695055008,-0.7134639024734497,2.0919620990753174,-1.3839683532714844,0.34323692321777344,0,0,0
2461076907,d4:22:cd:00:30:92,-0.02438419871032238,-0.6948255300521851,0.02593250386416912,-0.7182987928390503,3.4983863830566406,-1.2504314184188843,0.6740684509277344,0,0,0
2461093574,d4:22:cd:00:30:92,-0.027495427057147026,-0.6881044507026672,0.024950310587882996,-0.7246628403663635,3.9456870555877686,-1.1251838207244873,1.0343027114868164,0,0,0
2461110241,d4:22:cd:00:30:92,-0.03248848393559456,-0.6798765659332275,0.0256012212485075,-0.732160747051239,3.5735549926757812,-1.5498239994049072,1.495692253112793,0,0,0
2461126908,d4:22:cd:00:30:92,-0.03894311189651489,-0.6703829765319824,0.027949057519435883,-0.7404670715332031,2.70828914642334,-0.679196298122406,1.377481460571289,0,0,0
2461143575,d4:22:cd:00:30:92,-0.044639334082603455,-0.6602050065994263,0.030311258509755135,-0.7491465210914612,1.7117139101028442,0.06239296495914459,1.310089111328125,0,0,0
2461160242,d4:22:cd:00:30:92,-0.04845321178436279,-0.6493122577667236,0.0310757365077734,-0.7583421468734741,1.7205246686935425,-0.11105066537857056,1.6842985153198242,0,0,0
2461176909,d4:22:cd:00:30:92,-0.04968731105327606,-0.6371099352836609,0.02867257036268711,-0.7686368227005005,2.803884267807007,0.7278385162353516,2.0737781524658203,0,0,0
2461193576,d4:22:cd:00:30:92,-0.049930427223443985,-0.6227469444274902,0.02325577288866043,-0.7804836630821228,3.829033613204956,-0.16216032207012177,2.631363868713379,0,0,0
2461210243,d4:22:cd:00:30:92,-0.051521699875593185,-0.606519341468811,0.01846654713153839,-0.793184220790863,3.114492177963257,-0.7176371812820435,2.5185623168945312,0,0,0
2461226910,d4:22:cd:00:30:92,-0.0542973056435585,-0.589179277420044,0.01525892037898302,-0.8060329556465149,1.315179467201233,-0.20152659714221954,2.0831642150878906,0,0,0
2461243577,d4:22:cd:00:30:92,-0.0568905845284462,-0.5707460045814514,0.011796179227530956,-0.8190699815750122,0.41979536414146423,0.03537368401885033,1.883915901184082,0,0,0
2461260244,d4:22:cd:00:30:92,-0.05927020311355591,-0.5510233044624329,0.008068908005952835,-0.8323448300361633,-0.20759694278240204,0.14451973140239716,1.9118194580078125,0,0,0
2461276911,d4:22:cd:00:30:92,-0.06069636717438698,-0.5303164124488831,0.003043442964553833,-0.845620334148407,-0.07333508133888245,0.7494896054267883,1.8763513565063477,0,0,0
2461293578,d4:22:cd:00:30:92,-0.06113443151116371,-0.5084132552146912,-0.0033281370997428894,-0.8589353561401367,0.3146107792854309,0.7700391411781311,2.172390937805176,0,0,0
2461310245,d4:22:cd:00:30:92,-0.06159145385026932,-0.4851440191268921,-0.009264789521694183,-0.8722146153450012,0.009347007609903812,0.48969072103500366,2.333087921142578,0,0,0
2461326912,d4:22:cd:00:30:92,-0.06255348026752472,-0.4606952369213104,-0.013166569173336029,-0.8852548599243164,-0.968163013458252,0.6647170782089233,2.034322738647461,0,0,0
2461343579,d4:22:cd:00:30:92,-0.06368568539619446,-0.435305655002594,-0.01611875742673874,-0.8978841304779053,-1.6196798086166382,0.6301764845848083,1.5147390365600586,0,0,0
2461360246,d4:22:cd:00:30:92,-0.0649096742272377,-0.4092395007610321,-0.018411904573440552,-0.909930408000946,-2.0461225509643555,0.5404986143112183,1.024491310119629,0,0,0
2461376913,d4:22:cd:00:30:92,-0.06589405238628387,-0.3825518488883972,-0.021084200590848923,-0.9213414192199707,-2.1176459789276123,0.5078474879264832,1.078887939453125,0,0,0
2461393580,d4:22:cd:00:30:92,-0.06682786345481873,-0.35474321246147156,-0.02418421022593975,-0.9322602152824402,-2.0134124755859375,0.15140734612941742,1.6350793838500977,0,0,0
2461410247,d4:22:cd:00:30:92,-0.06816551089286804,-0.3258219361305237,-0.02703917771577835,-0.942584216594696,-2.1539268493652344,0.030871057882905006,1.620035171508789,0,0,0
2461426914,d4:22:cd:00:30:92,-0.07008994370698929,-0.29637646675109863,-0.028223933652043343,-0.9520789980888367,-2.438136339187622,-0.10464715957641602,1.0109195709228516,0,0,0
2461443581,d4:22:cd:00:30:92,-0.07218533009290695,-0.26671063899993896,-0.02853163331747055,-0.9606473445892334,-2.6930367946624756,0.3401661813259125,0.4507331848144531,0,0,0
2461460248,d4:22:cd:00:30:92,-0.07413610070943832,-0.2370833158493042,-0.03045037016272545,-0.9681790471076965,-2.9000489711761475,0.6023076772689819,0.09017562866210938,0,0,0
2461476915,d4:22:cd:00:30:92,-0.07614631950855255,-0.20766259729862213,-0.03396427631378174,-0.9746419191360474,-3.116825580596924,0.3447684049606323,0.2370586395263672,0,0,0
2461493582,d4:22:cd:00:30:92,-0.0785365104675293,-0.17813880741596222,-0.03712816163897514,-0.980164647102356,-3.053014039993286,-0.25428667664527893,0.63079833984375,0,0,0
2461510249,d4:22:cd:00:30:92,-0.08126737177371979,-0.14845041930675507,-0.03782782703638077,-0.9848501086235046,-3.0849435329437256,-0.3108212649822235,0.4940671920776367,0,0,0
2461526916,d4:22:cd:00:30:92,-0.08418910205364227,-0.11867503821849823,-0.037035729736089706,-0.9886655211448669,-3.105236053466797,0.16234925389289856,-0.03945446014404297,0,0,0
2461543583,d4:22:cd:00:30:92,-0.08689504116773605,-0.08933417499065399,-0.03732260689139366,-0.9915029406547546,-2.90915584564209,0.6376268863677979,-0.6636037826538086,0,0,0
2461560250,d4:22:cd:00:30:92,-0.08925062417984009,-0.06092548370361328,-0.04027687385678291,-0.9933289885520935,-2.8145837783813477,0.5350037217140198,-0.8929681777954102,0,0,0
2461576917,d4:22:cd:00:30:92,-0.09139467775821686,-0.03328215703368187,-0.04512813314795494,-0.9942359924316406,-2.6747071743011475,0.16621220111846924,-0.5886859893798828,0,0,0
2461593584,d4:22:cd:00:30:92,-0.09333673119544983,-0.006217270158231258,-0.05025871470570564,-0.9943471550941467,-2.3943066596984863,-0.3548952639102936,-0.32754039764404297,0,0,0
2461610251,d4:22:cd:00:30:92,-0.09508856385946274,0.020160505548119545,-0.05441009998321533,-0.9937775135040283,-1.8938536643981934,-0.6568424105644226,-0.6746273040771484,0,0,0
2461626918,d4:22:cd:00:30:92,-0.09691278636455536,0.045533690601587296,-0.05798364803195,-0.9925599098205566,-1.6668380498886108,-0.46125978231430054,-0.8795042037963867,0,0,0
2461643585,d4:22:cd:00:30:92,-0.09892617166042328,0.06989426910877228,-0.06349073350429535,-0.9906057715415955,-1.5579715967178345,0.6216300129890442,-1.0856103897094727,0,0,0
2461660252,d4:22:cd:00:30:92,-0.10153387486934662,0.09317413717508316,-0.07187872380018234,-0.9878488779067993,-1.355047583580017,0.12069454044103622,-1.3044977188110352,0,0,0
2461676919,d4:22:cd:00:30:92,-0.1045621782541275,0.11551080644130707,-0.0808873176574707,-0.984471321105957,-1.3857682943344116,-0.7428487539291382,-1.0728349685668945,0,0,0
2461693586,d4:22:cd:00:30:92,-0.10774005204439163,0.13733015954494476,-0.08814401924610138,-0.9806966185569763,-1.3758039474487305,-1.0141832828521729,-0.6951093673706055,0,0,0
2461710253,d4:22:cd:00:30:92,-0.11087848246097565,0.15873365104198456,-0.0932239443063736,-0.9766378402709961,-1.3934067487716675,-0.4346843659877777,-0.7131175994873047,0,0,0
2461726920,d4:22:cd:00:30:92,-0.11451001465320587,0.17969956994056702,-0.0981949046254158,-0.9720883369445801,-1.1898540258407593,0.1824938803911209,-1.1384248733520508,0,0,0
2461743587,d4:22:cd:00:30:92,-0.11880239844322205,0.20009613037109375,-0.10429759323596954,-0.9669395685195923,-0.9639826416969299,0.1962391585111618,-1.4180126190185547,0,0,0
2461760254,d4:22:cd:00:30:92,-0.12360899150371552,0.219842791557312,-0.11105074733495712,-0.9612805247306824,-0.790696382522583,-0.10770168155431747,-1.4382266998291016,0,0,0
2461776921,d4:22:cd:00:30:92,-0.1285528689622879,0.23901952803134918,-0.11757871508598328,-0.9552600979804993,-0.6245195865631104,-0.04162666201591492,-1.2617416381835938,0,0,0
2461793588,d4:22:cd:00:30:92,-0.1331842690706253,0.2575606107711792,-0.12351956963539124,-0.9490363597869873,-0.4485915005207062,0.014017699286341667,-1.082962989807129,0,0,0
2461810255,d4:22:cd:00:30:92,-0.13738036155700684,0.2754572033882141,-0.12876766920089722,-0.9426937103271484,-0.034673985093832016,0.12493918836116791,-1.2268762588500977,0,0,0
2461826922,d4:22:cd:00:30:92,-0.1416962444782257,0.29226306080818176,-0.13440342247486115,-0.9361851811408997,0.49838191270828247,0.35446274280548096,-1.4700040817260742,0,0,0
2461843589,d4:22:cd:00:30:92,-0.14628103375434875,0.3078349828720093,-0.14076392352581024,-0.9295307397842407,0.7272109389305115,0.23171544075012207,-1.5838432312011719,0,0,0
2461860256,d4:22:cd:00:30:92,-0.15100273489952087,0.32218676805496216,-0.1477404236793518,-0.92280513048172,0.8685018420219421,0.12647195160388947,-1.5143356323242188,0,0,0
2461876923,d4:22:cd:00:30:92,-0.1553269624710083,0.33526119589805603,-0.15414150059223175,-0.9163603782653809,0.9307611584663391,-0.3065599501132965,-1.3221092224121094,0,0,0
2461893590,d4:22:cd:00:30:92,-0.15900343656539917,0.3472250998020172,-0.15927359461784363,-0.9103774428367615,1.0222469568252563,-0.4055054485797882,-1.4391183853149414,0,0,0
2461910257,d4:22:cd:00:30:92,-0.16213473677635193,0.3579685688018799,-0.16314111649990082,-0.9049631953239441,1.1897004842758179,-0.3876146972179413,-1.289876937866211,0,0,0
