sep=,
Measurement Mode:,Extended (Quaternion)
StartTime:,Tue, 31 May 2022 11:27:44 GMT
© Xsens Technologies B. V. 2005-2022

Timestamp,Address,Quaternion_w,Quaternion_x,Quaternion_y,Quaternion_z,FreeAcc_x,FreeAcc_y,FreeAcc_z,Status,ClipCountAcc,ClipCountGyr
575789285,d4:22:cd:00:30:92,0.9574588537216187,-0.01759900525212288,0.0036480978596955538,0.2880323529243469,-0.01757410168647766,-0.014884551987051964,0.1120452880859375,0,0,0
575805952,d4:22:cd:00:30:92,0.9573939442634583,-0.017344146966934204,0.003747296519577503,0.28826263546943665,-0.033451855182647705,0.01218406856060028,0.10469245910644531,0,0,0
575822619,d4:22:cd:00:30:92,0.9573677778244019,-0.0170904491096735,0.0038665770553052425,0.28836262226104736,-0.06076223403215408,0.03910188749432564,0.08728218078613281,0,0,0
575839286,d4:22:cd:00:30:92,0.9574065804481506,-0.01699148118495941,0.003968849778175354,0.2882382869720459,-0.07400387525558472,0.04303855076432228,0.09446525573730469,0,0,0
575855953,d4:22:cd:00:30:92,0.9573975205421448,-0.0170995332300663,0.004022593609988689,0.2882613241672516,-0.05236339941620827,0.02331860363483429,0.09561347961425781,0,0,0
575872620,d4:22:cd:00:30:92,0.9574012756347656,-0.017277514562010765,0.004060032311826944,0.2882375419139862,0.017834508791565895,0.013419591821730137,0.07174873352050781,0,0,0
575889287,d4:22:cd:00:30:92,0.9574629664421082,-0.01736285351216793,0.004148397594690323,0.2880266010761261,0.01597253605723381,0.025123275816440582,0.06042671203613281,0,0,0
575905954,d4:22:cd:00:30:92,0.9574543237686157,-0.01743544638156891,0.004269282799214125,0.28804895281791687,-0.005571682006120682,0.03202497959136963,0.06989860534667969,0,0,0
575922621,d4:22:cd:00:30:92,0.9574441909790039,-0.01755516417324543,0.004344215616583824,0.2880741357803345,-0.009580012410879135,0.014418653212487698,0.07978534698486328,0,0,0
575939288,d4:22:cd:00:30:92,0.9574050903320312,-0.017632292583584785,0.004397859331220388,0.2881985604763031,0.033466268330812454,-0.019955487921833992,0.051499366760253906,0,0,0
575955955,d4:22:cd:00:30:92,0.957389771938324,-0.01762557029724121,0.004486907739192247,0.2882486581802368,0.0065638236701488495,-0.003711963538080454,0.023456573486328125,0,0,0
575972622,d4:22:cd:00:30:92,0.9573304057121277,-0.017587633803486824,0.004553185310214758,0.28844720125198364,-0.020351503044366837,0.003225655062124133,0.02527141571044922,0,0,0
575989289,d4:22:cd:00:30:92,0.9572944045066833,-0.017520861700177193,0.004609220195561647,0.2885693609714508,0.013938947580754757,-0.013026111759245396,0.0577545166015625,0,0,0
576005956,d4:22:cd:00:30:92,0.9572774767875671,-0.017353404313325882,0.0046788593754172325,0.28863468766212463,0.00575402332469821,-0.006922545377165079,0.03805351257324219,0,0,0
576022623,d4:22:cd:00:30:92,0.9572906494140625,-0.017086967825889587,0.004755156114697456,0.28860554099082947,-0.01604374684393406,0.004763494245707989,0.033820152282714844,0,0,0
576039290,d4:22:cd:00:30:92,0.9572674632072449,-0.016913356259465218,0.004804286640137434,0.28869208693504333,-0.045534368604421616,0.021777383983135223,0.047344207763671875,0,0,0
576055957,d4:22:cd:00:30:92,0.9572629928588867,-0.016917821019887924,0.004830061923712492,0.28870588541030884,-0.06371506303548813,0.03679348900914192,0.04221820831298828,0,0,0
576072624,d4:22:cd:00:30:92,0.9572393298149109,-0.017078135162591934,0.004781990312039852,0.28877565264701843,-0.06599755585193634,0.019175734370946884,0.057211875915527344,0,0,0
576089291,d4:22:cd:00:30:92,0.9572611451148987,-0.017227470874786377,0.004732219502329826,0.2886953055858612,0.02391284704208374,-0.016715388745069504,0.04918670654296875,0,0,0
576105958,d4:22:cd:00:30:92,0.9572665095329285,-0.017170188948512077,0.004725070204585791,0.2886812388896942,0.015963902696967125,0.008146082982420921,0.04038238525390625,0,0,0
576122625,d4:22:cd:00:30:92,0.9572930335998535,-0.01706043630838394,0.004721942823380232,0.2885996997356415,-0.037389080971479416,0.018176548182964325,0.02313518524169922,0,0,0
576139292,d4:22:cd:00:30:92,0.9574451446533203,-0.017033785581588745,0.00470305560156703,0.28809669613838196,-0.0443972609937191,0.01594868302345276,0.039981842041015625,0,0,0
576155959,d4:22:cd:00:30:92,0.9574664831161499,-0.017076842486858368,0.004633761011064053,0.28802430629730225,-0.019520696252584457,-0.01701289787888527,0.03052997589111328,0,0,0
576172626,d4:22:cd:00:30:92,0.9575088024139404,-0.017063407227396965,0.004544998053461313,0.2878859043121338,0.01122276671230793,-0.05351598560810089,0.03265857696533203,0,0,0
576189293,d4:22:cd:00:30:92,0.9574363231658936,-0.01693080924451351,0.004473824519664049,0.2881355881690979,-0.0033960165455937386,-0.023198843002319336,0.060408592224121094,0,0,0
576205960,d4:22:cd:00:30:92,0.9574921131134033,-0.016826575621962547,0.004407630302011967,0.2879576086997986,-0.017636749893426895,0.013945015147328377,0.062470436096191406,0,0,0
576222627,d4:22:cd:00:30:92,0.9575155973434448,-0.016782892867922783,0.004340261220932007,0.2878826856613159,-0.014114167541265488,0.001716230297461152,0.09065532684326172,0,0,0
576239294,d4:22:cd:00:30:92,0.9575010538101196,-0.016804084181785583,0.004240732174366713,0.28793129324913025,0.0029213919769972563,-0.03657503053545952,0.11016178131103516,0,0,0
576255961,d4:22:cd:00:30:92,0.9575619697570801,-0.01675424724817276,0.004162176046520472,0.2877327799797058,0.04139717295765877,-0.06074589118361473,0.12647247314453125,0,0,0
576272628,d4:22:cd:00:30:92,0.9575459361076355,-0.016677454113960266,0.004118898417800665,0.28779137134552,0.025258811190724373,-0.027139432728290558,0.14151287078857422,0,0,0
576289295,d4:22:cd:00:30:92,0.9575758576393127,-0.016679352149367332,0.004097616299986839,0.28769198060035706,0.002960171550512314,0.007956977002322674,0.1460733413696289,0,0,0
576305962,d4:22:cd:00:30:92,0.9575448036193848,-0.01671377755701542,0.004137292969971895,0.28779277205467224,0.037420984357595444,-0.01678178645670414,0.1546316146850586,0,0,0
576322629,d4:22:cd:00:30:92,0.9575074315071106,-0.016693012788891792,0.004231820348650217,0.28791722655296326,0.05901670828461647,-0.022731896489858627,0.14842700958251953,0,0,0
576339296,d4:22:cd:00:30:92,0.9574930667877197,-0.01655522547662258,0.0043840669095516205,0.2879701852798462,0.016458280384540558,-0.0029641170985996723,0.11430644989013672,0,0,0
576355963,d4:22:cd:00:30:92,0.9574982523918152,-0.016411878168582916,0.004497429355978966,0.2879597544670105,-0.03560474514961243,-0.006679992191493511,0.11604976654052734,0,0,0
576372630,d4:22:cd:00:30:92,0.957452654838562,-0.016329044476151466,0.004570766817778349,0.28811466693878174,-0.019719379022717476,-0.033077988773584366,0.13779830932617188,0,0,0
576389297,d4:22:cd:00:30:92,0.9574506878852844,-0.0163020770996809,0.004671787843108177,0.2881213128566742,-0.029682422056794167,-0.023713411763310432,0.0993795394897461,0,0,0
576405964,d4:22:cd:00:30:92,0.9574309587478638,-0.01630253531038761,0.004799010697752237,0.28818485140800476,-0.03145354986190796,0.01142255961894989,0.10142707824707031,0,0,0
576422631,d4:22:cd:00:30:92,0.9574053287506104,-0.016331344842910767,0.004926932509988546,0.28826600313186646,-0.038569673895835876,-0.0066515360958874226,0.0874776840209961,0,0,0
576439298,d4:22:cd:00:30:92,0.9574355483055115,-0.016383199021220207,0.005064645316451788,0.2881600856781006,-0.01795407198369503,0.00556988688185811,0.07837390899658203,0,0,0
576455965,d4:22:cd:00:30:92,0.9573860168457031,-0.016541332006454468,0.005170510616153479,0.28831419348716736,-0.01544950157403946,0.0023509650491178036,0.03872489929199219,0,0,0
576472632,d4:22:cd:00:30:92,0.9573561549186707,-0.01673748716711998,0.005271353293210268,0.28839948773384094,-0.011598671786487103,-0.003818104276433587,-0.00200653076171875,0,0,0
576489299,d4:22:cd:00:30:92,0.9573609828948975,-0.016882022842764854,0.005339575465768576,0.2883740961551666,-0.0459873229265213,0.00384313752874732,0.0063381195068359375,0,0,0
576505966,d4:22:cd:00:30:92,0.9573197364807129,-0.016989052295684814,0.005389729049056768,0.2885035574436188,0.023772405460476875,-0.046011943370103836,-0.021727561950683594,0,0,0
576522633,d4:22:cd:00:30:92,0.9573163986206055,-0.017010999843478203,0.005431612487882376,0.28851252794265747,-0.018963981419801712,0.002831490011885762,-0.027944564819335938,0,0,0
576539300,d4:22:cd:00:30:92,0.9573038816452026,-0.01702163554728031,0.0054401820525527,0.28855329751968384,-0.06489735096693039,0.010311155579984188,-0.03793048858642578,0,0,0
576555967,d4:22:cd:00:30:92,0.9573126435279846,-0.01700408384203911,0.005395789630711079,0.2885260283946991,-0.03583693876862526,-0.02845083922147751,-0.0060329437255859375,0,0,0
576572634,d4:22:cd:00:30:92,0.9573748111724854,-0.016952255740761757,0.005330292973667383,0.2883240878582001,-0.009350971318781376,-0.020922601222991943,0.030043601989746094,0,0,0
576589301,d4:22:cd:00:30:92,0.9573937058448792,-0.01691289059817791,0.005243746098130941,0.2882652282714844,-0.026920223608613014,0.0016527246916666627,0.03205108642578125,0,0,0
576605968,d4:22:cd:00:30:92,0.9574235081672668,-0.01697540283203125,0.005134003236889839,0.2881648540496826,-0.05692613869905472,0.0345551036298275,0.04497241973876953,0,0,0
576622635,d4:22:cd:00:30:92,0.9573960304260254,-0.01718214713037014,0.005014488007873297,0.2882462441921234,-0.027743075042963028,0.007483479101210833,0.07302093505859375,0,0,0
576639302,d4:22:cd:00:30:92,0.9573843479156494,-0.017437729984521866,0.00488982442766428,0.288271427154541,-0.007570534013211727,-0.056013323366642,0.09942340850830078,0,0,0
576655969,d4:22:cd:00:30:92,0.9573514461517334,-0.0175983514636755,0.004792261403053999,0.28837257623672485,0.04298364371061325,-0.04910801723599434,0.09223079681396484,0,0,0
576672636,d4:22:cd:00:30:92,0.9573702812194824,-0.017629409208893776,0.004740468692034483,0.28830936551094055,0.009967539459466934,0.005408706143498421,0.08970069885253906,0,0,0
576689303,d4:22:cd:00:30:92,0.957408607006073,-0.017711235210299492,0.004651972092688084,0.2881784439086914,-0.00010659385588951409,-0.0295953918248415,0.11410999298095703,0,0,0
576705970,d4:22:cd:00:30:92,0.9574099183082581,-0.017882151529192924,0.0045508937910199165,0.28816473484039307,0.043796926736831665,-0.055492959916591644,0.10139656066894531,0,0,0
576722637,d4:22:cd:00:30:92,0.9574229717254639,-0.018004339188337326,0.00445419829338789,0.28811514377593994,0.03731852024793625,-0.03621338680386543,0.09002494812011719,0,0,0
576739304,d4:22:cd:00:30:92,0.9573992490768433,-0.01807278022170067,0.00436647143214941,0.2881911098957062,0.07699544727802277,-0.0588415302336216,0.09692001342773438,0,0,0
576755971,d4:22:cd:00:30:92,0.9573754072189331,-0.01806669682264328,0.0043540094047784805,0.2882709205150604,0.08559732139110565,-0.021670712158083916,0.11593341827392578,0,0,0
576772638,d4:22:cd:00:30:92,0.9573609828948975,-0.018055841326713562,0.004429672844707966,0.2883182168006897,0.02391795627772808,-0.016884462907910347,0.12378311157226562,0,0,0
576789305,d4:22:cd:00:30:92,0.9573262333869934,-0.018183566629886627,0.004476568661630154,0.2884252071380615,-0.015697985887527466,-0.020585794001817703,0.11837291717529297,0,0,0
576805972,d4:22:cd:00:30:92,0.9572652578353882,-0.018447155132889748,0.004487629048526287,0.2886103689670563,0.0034978266339749098,-0.027729744091629982,0.12123680114746094,0,0,0
576822639,d4:22:cd:00:30:92,0.9571942090988159,-0.018751980736851692,0.0044777472503483295,0.28882694244384766,-0.012208245694637299,-0.036792341619729996,0.07324028015136719,0,0,0
576839306,d4:22:cd:00:30:92,0.9571127891540527,-0.0189683698117733,0.0044501060619950294,0.2890828251838684,0.0021089408546686172,-0.03765707090497017,0.06314945220947266,0,0,0
576855973,d4:22:cd:00:30:92,0.957041323184967,-0.0189802348613739,0.004457901231944561,0.28931835293769836,0.016161786392331123,-0.038803499191999435,0.07934188842773438,0,0,0
576872640,d4:22:cd:00:30:92,0.957015335559845,-0.018822725862264633,0.004504469223320484,0.2894134223461151,0.008162419311702251,-0.007043172605335712,0.05756855010986328,0,0,0
576889307,d4:22:cd:00:30:92,0.9569721817970276,-0.018620949238538742,0.0045778341591358185,0.28956806659698486,-0.0728955939412117,0.03970837593078613,0.05193901062011719,0,0,0
576905974,d4:22:cd:00:30:92,0.9569329619407654,-0.01855524070560932,0.004589696414768696,0.28970181941986084,-0.09470971673727036,0.02459423430263996,0.07828521728515625,0,0,0
576922641,d4:22:cd:00:30:92,0.9568814039230347,-0.01859530247747898,0.004547927528619766,0.2898702919483185,-0.012542253360152245,-0.029831016436219215,0.07717704772949219,0,0,0
576939308,d4:22:cd:00:30:92,0.956874430179596,-0.01851193979382515,0.0045569902285933495,0.2898985743522644,0.004685716703534126,0.007164777722209692,0.034544944763183594,0,0,0
576955975,d4:22:cd:00:30:92,0.9568893909454346,-0.018283793702721596,0.004580840468406677,0.2898629605770111,-0.020865460857748985,0.01620195060968399,0.0688791275024414,0,0,0
576972642,d4:22:cd:00:30:92,0.9568781852722168,-0.018045255914330482,0.00459374999627471,0.28991469740867615,-0.014210599474608898,-0.025140514597296715,0.1030426025390625,0,0,0
576989309,d4:22:cd:00:30:92,0.9568864107131958,-0.017762817442417145,0.004598076920956373,0.2899048924446106,0.03729243576526642,-0.03279932588338852,0.12365341186523438,0,0,0
577005976,d4:22:cd:00:30:92,0.9569334387779236,-0.017411349341273308,0.0046672457829117775,0.2897699177265167,0.05520947277545929,-0.01450411882251501,0.09098434448242188,0,0,0
577022643,d4:22:cd:00:30:92,0.9569812417030334,-0.01715148240327835,0.004753401502966881,0.2896263301372528,-0.03962200507521629,0.04081402346491814,0.08903312683105469,0,0,0
577039310,d4:22:cd:00:30:92,0.9569522142410278,-0.017243890091776848,0.00475230673328042,0.2897166609764099,-0.044676776975393295,-0.020898588001728058,0.1265420913696289,0,0,0
577055977,d4:22:cd:00:30:92,0.956917405128479,-0.017497453838586807,0.004758499562740326,0.2898162305355072,0.06251537799835205,-0.06570979207754135,0.13343238830566406,0,0,0
577072644,d4:22:cd:00:30:92,0.9568942785263062,-0.017580531537532806,0.004830072168260813,0.2898862659931183,0.11008801311254501,-0.03304428234696388,0.09011363983154297,0,0,0
577089311,d4:22:cd:00:30:92,0.9568937420845032,-0.017519069835543633,0.004970019683241844,0.289889395236969,0.044234562665224075,0.027958830818533897,0.07264041900634766,0,0,0
577105978,d4:22:cd:00:30:92,0.9568954110145569,-0.017560282722115517,0.005102759227156639,0.28987938165664673,-0.019489295780658722,-0.006589538883417845,0.04297351837158203,0,0,0
577122645,d4:22:cd:00:30:92,0.9568551778793335,-0.017695333808660507,0.005182483699172735,0.2900025248527527,0.04614442214369774,-0.05919325724244118,0.014670372009277344,0,0,0
577139312,d4:22:cd:00:30:92,0.9567970037460327,-0.017682518810033798,0.005236431956291199,0.29019400477409363,0.05480071157217026,-0.05303729325532913,-0.009290695190429688,0,0,0
577155979,d4:22:cd:00:30:92,0.9567373394966125,-0.017396559938788414,0.0052399118430912495,0.2904077172279358,0.004139517899602652,-0.016385776922106743,0.03516864776611328,0,0,0
577172646,d4:22:cd:00:30:92,0.9566782116889954,-0.01693074032664299,0.005236106459051371,0.2906303107738495,-0.004437962546944618,-0.0008271655533462763,0.08594417572021484,0,0,0
577189313,d4:22:cd:00:30:92,0.9566333293914795,-0.016315799206495285,0.005297098308801651,0.29081225395202637,-0.018832223489880562,0.013969364576041698,0.08113956451416016,0,0,0
577205980,d4:22:cd:00:30:92,0.9565860033035278,-0.015615052543580532,0.005380827933549881,0.29100456833839417,-0.08000534772872925,0.0485323891043663,0.12181854248046875,0,0,0
577222647,d4:22:cd:00:30:92,0.9565740823745728,-0.014861474744975567,0.005486106965690851,0.2910817563533783,-0.0850614681839943,0.00819950271397829,0.1675577163696289,0,0,0
577239314,d4:22:cd:00:30:92,0.9565948843955994,-0.014038464985787868,0.0056557063944637775,0.2910507917404175,-0.09659861773252487,0.037900980561971664,0.16547107696533203,0,0,0
577255981,d4:22:cd:00:30:92,0.9566438794136047,-0.013307196088135242,0.005880758166313171,0.29091939330101013,-0.1497368961572647,0.09099224954843521,0.16119098663330078,0,0,0
577272648,d4:22:cd:00:30:92,0.95672607421875,-0.012920829467475414,0.006084722932428122,0.2906621992588043,-0.16928820312023163,0.08782916516065598,0.1560211181640625,0,0,0
577289315,d4:22:cd:00:30:92,0.95685875415802,-0.012847764417529106,0.006245261058211327,0.2902248203754425,-0.12140288949012756,0.010788998566567898,0.10419845581054688,0,0,0
577305982,d4:22:cd:00:30:92,0.9569692015647888,-0.012826360762119293,0.006415419280529022,0.2898579239845276,-0.06474339216947556,-0.023754335939884186,0.071075439453125,0,0,0
577322649,d4:22:cd:00:30:92,0.9570927023887634,-0.012882759794592857,0.0065618581138551235,0.2894440293312073,-0.03496437892317772,-0.03208981826901436,-0.011176109313964844,0,0,0
577339316,d4:22:cd:00:30:92,0.9572226405143738,-0.013089729472994804,0.006658848375082016,0.28900235891342163,-0.04861702769994736,0.0017997821560129523,-0.0666494369506836,0,0,0
577355983,d4:22:cd:00:30:92,0.95732182264328,-0.013484437018632889,0.006679077632725239,0.2886548638343811,-0.01933814398944378,-0.07320503890514374,-0.10822391510009766,0,0,0
577372650,d4:22:cd:00:30:92,0.957406759262085,-0.013887185603380203,0.006641028448939323,0.288354754447937,0.043648410588502884,-0.1378764808177948,-0.16587448120117188,0,0,0
577389317,d4:22:cd:00:30:92,0.9574660062789917,-0.014205023646354675,0.00653819227591157,0.28814470767974854,0.08467572927474976,-0.1569848358631134,-0.22565555572509766,0,0,0
577405984,d4:22:cd:00:30:92,0.9575254917144775,-0.014443389140069485,0.00634794682264328,0.28793928027153015,0.07817178219556808,-0.14099308848381042,-0.2819662094116211,0,0,0
577422651,d4:22:cd:00:30:92,0.9575658440589905,-0.014634821563959122,0.006058363243937492,0.28780174255371094,0.07728031277656555,-0.15836791694164276,-0.32405757904052734,0,0,0
577439318,d4:22:cd:00:30:92,0.9575814604759216,-0.014737272635102272,0.005618461407721043,0.2877536118030548,0.05105055868625641,-0.19626057147979736,-0.3551139831542969,0,0,0
577455985,d4:22:cd:00:30:92,0.957581102848053,-0.014741412363946438,0.005030519794672728,0.2877655029296875,0.1305696964263916,-0.2319493591785431,-0.42038822174072266,0,0,0
577472652,d4:22:cd:00:30:92,0.9575766921043396,-0.014586536213755608,0.004336897283792496,0.2877999544143677,0.10708247125148773,-0.1632661372423172,-0.5212993621826172,0,0,0
577489319,d4:22:cd:00:30:92,0.9575210809707642,-0.014549841172993183,0.003462826367467642,0.287998229265213,-0.01663394458591938,-0.16129548847675323,-0.6241617202758789,0,0,0
577505986,d4:22:cd:00:30:92,0.9574415683746338,-0.014864747412502766,0.002289912896230817,0.28825780749320984,0.020526330918073654,-0.22752462327480316,-0.6858234405517578,0,0,0
577522653,d4:22:cd:00:30:92,0.9574146270751953,-0.015328810550272465,0.0008589618373662233,0.28833118081092834,0.09428732097148895,-0.26266539096832275,-0.7984561920166016,0,0,0
577539320,d4:22:cd:00:30:92,0.9573569297790527,-0.01574365235865116,-0.0009069605730473995,0.28850057721138,0.12052148580551147,-0.2543221116065979,-0.8811750411987305,0,0,0
577555987,d4:22:cd:00:30:92,0.9572967290878296,-0.016119159758090973,-0.002985903061926365,0.288664847612381,0.13403074443340302,-0.2070571780204773,-0.9798946380615234,0,0,0
577572654,d4:22:cd:00:30:92,0.9571815133094788,-0.01658211648464203,-0.0054262783378362656,0.28898540139198303,0.06248891353607178,-0.20933279395103455,-1.0954971313476562,0,0,0
577589321,d4:22:cd:00:30:92,0.9569989442825317,-0.0172574445605278,-0.008278263732790947,0.2894827723503113,0.05505020171403885,-0.25820451974868774,-1.1778678894042969,0,0,0
577605988,d4:22:cd:00:30:92,0.9568179845809937,-0.01803961768746376,-0.011499589309096336,0.28992241621017456,0.09031322598457336,-0.2712094187736511,-1.2718572616577148,0,0,0
577622655,d4:22:cd:00:30:92,0.9565436840057373,-0.018693719059228897,-0.015093021094799042,0.29062020778656006,0.08458895981311798,-0.2069547474384308,-1.3514680862426758,0,0,0
577639322,d4:22:cd:00:30:92,0.9562681317329407,-0.019306965172290802,-0.019073646515607834,0.291252464056015,0.029543131589889526,-0.11803526431322098,-1.3989973068237305,0,0,0
577655989,d4:22:cd:00:30:92,0.9558775424957275,-0.019892824813723564,-0.023512616753578186,0.2921692728996277,-0.01467971596866846,-0.060053348541259766,-1.392974853515625,0,0,0
577672656,d4:22:cd:00:30:92,0.9554665088653564,-0.02033035084605217,-0.028366439044475555,0.29305124282836914,-0.003068120451644063,-0.0442996546626091,-1.3127527236938477,0,0,0
577689323,d4:22:cd:00:30:92,0.955024778842926,-0.02060927078127861,-0.033522654324769974,0.2939259707927704,-0.005891228560358286,0.009587825275957584,-1.211019515991211,0,0,0
577705990,d4:22:cd:00:30:92,0.9546520113945007,-0.020894795656204224,-0.038958750665187836,0.2944459021091461,-0.1395435482263565,0.14975006878376007,-1.088688850402832,0,0,0
577722657,d4:22:cd:00:30:92,0.9543091058731079,-0.021561885252594948,-0.04482926428318024,0.29467397928237915,-0.21678127348423004,0.22571225464344025,-0.8959321975708008,0,0,0
577739324,d4:22:cd:00:30:92,0.9538944363594055,-0.02273103967308998,-0.05117678642272949,0.2948947548866272,-0.1721268594264984,0.175007626414299,-0.7071781158447266,0,0,0
577755991,d4:22:cd:00:30:92,0.9533859491348267,-0.024139320477843285,-0.05788659304380417,0.295186311006546,-0.14441978931427002,0.1499788910150528,-0.5656881332397461,0,0,0
577772658,d4:22:cd:00:30:92,0.9529033899307251,-0.025637099519371986,-0.06476245820522308,0.29518988728523254,0.006534624844789505,0.22989022731781006,-0.4985923767089844,0,0,0
577789325,d4:22:cd:00:30:92,0.9524161219596863,-0.027076298370957375,-0.07165869325399399,0.2950403392314911,0.06591922044754028,0.3979848027229309,-0.4717559814453125,0,0,0
577805992,d4:22:cd:00:30:92,0.951891303062439,-0.02856581285595894,-0.07865788042545319,0.29481041431427,0.06783199310302734,0.507581889629364,-0.38054943084716797,0,0,0
577822659,d4:22:cd:00:30:92,0.951335072517395,-0.030099477618932724,-0.0858461856842041,0.2944474220275879,0.0794709250330925,0.4647161662578583,-0.3600902557373047,0,0,0
577839326,d4:22:cd:00:30:92,0.9507222175598145,-0.031511832028627396,-0.09327946603298187,0.2940177619457245,0.15122707188129425,0.4146119952201843,-0.3649406433105469,0,0,0
577855993,d4:22:cd:00:30:92,0.9500840902328491,-0.03282705321907997,-0.1008940115571022,0.2934218645095825,0.17034995555877686,0.4837948679924011,-0.46182823181152344,0,0,0
577872660,d4:22:cd:00:30:92,0.9493739604949951,-0.03414028882980347,-0.1086762547492981,0.29279041290283203,0.2016046643257141,0.6379724144935608,-0.5450000762939453,0,0,0
577889327,d4:22:cd:00:30:92,0.9485345482826233,-0.035219211131334305,-0.11671697348356247,0.2922881841659546,0.11357475817203522,0.691848874092102,-0.45316028594970703,0,0,0
577905994,d4:22:cd:00:30:92,0.9475445747375488,-0.03577205538749695,-0.12500819563865662,0.29200345277786255,0.20818717777729034,0.4039950966835022,-0.31797218322753906,0,0,0
577922661,d4:22:cd:00:30:92,0.9465097784996033,-0.03555406257510185,-0.13322609663009644,0.2917518615722656,0.3256891071796417,0.3081624507904053,-0.3797597885131836,0,0,0
577939328,d4:22:cd:00:30:92,0.9455070495605469,-0.03473012521862984,-0.14127951860427856,0.2913134694099426,0.21307791769504547,0.63861083984375,-0.4636402130126953,0,0,0
577955995,d4:22:cd:00:30:92,0.9444655776023865,-0.033819928765296936,-0.14945295453071594,0.2907201051712036,0.16447827219963074,0.906498908996582,-0.3625469207763672,0,0,0
577972662,d4:22:cd:00:30:92,0.9432957172393799,-0.03304969519376755,-0.1579025834798813,0.2901400625705719,0.03596490994095802,0.8911760449409485,-0.2592277526855469,0,0,0
577989329,d4:22:cd:00:30:92,0.9419907927513123,-0.03246330842375755,-0.16669733822345734,0.28952497243881226,-0.088211290538311,0.6509116291999817,-0.24469852447509766,0,0,0
578005996,d4:22:cd:00:30:92,0.9406125545501709,-0.03192179277539253,-0.17566774785518646,0.2887614369392395,-0.011813442222774029,0.47808533906936646,-0.20613670349121094,0,0,0
578022663,d4:22:cd:00:30:92,0.9392431974411011,-0.03119511343538761,-0.18459488451480865,0.28772735595703125,0.21100349724292755,0.583076536655426,-0.19064617156982422,0,0,0
578039330,d4:22:cd:00:30:92,0.9378683567047119,-0.030295584350824356,-0.1935211569070816,0.2864399254322052,0.017548225820064545,0.9037858247756958,-0.12414073944091797,0,0,0
578055997,d4:22:cd:00:30:92,0.9363519549369812,-0.03001565858721733,-0.20284296572208405,0.2849772572517395,-0.2190108448266983,0.8261751532554626,0.22530269622802734,0,0,0
578072664,d4:22:cd:00:30:92,0.9348104000091553,-0.030337844043970108,-0.2121882289648056,0.2831939458847046,0.026576807722449303,0.6343318819999695,0.11679363250732422,0,0,0
578089331,d4:22:cd:00:30:92,0.9332642555236816,-0.030588995665311813,-0.22143618762493134,0.2811785936355591,0.1183723509311676,0.7381691932678223,-0.02667713165283203,0,0,0
578105998,d4:22:cd:00:30:92,0.931596040725708,-0.031037576496601105,-0.2308446764945984,0.2790871262550354,0.07288925349712372,0.876187264919281,-0.02963542938232422,0,0,0
578122665,d4:22:cd:00:30:92,0.9296733736991882,-0.03144148737192154,-0.24069516360759735,0.2771243453025818,0.1836288571357727,0.5159683227539062,0.3759469985961914,0,0,0
578139332,d4:22:cd:00:30:92,0.9277336001396179,-0.03120533749461174,-0.2503330111503601,0.2751058340072632,0.349383145570755,0.3038305640220642,0.4004554748535156,0,0,0
578155999,d4:22:cd:00:30:92,0.9259140491485596,-0.03035719320178032,-0.25949376821517944,0.27283328771591187,0.03131036460399628,0.680485188961029,0.2076272964477539,0,0,0
578172666,d4:22:cd:00:30:92,0.9240688681602478,-0.030414104461669922,-0.2686012387275696,0.2702561616897583,-0.2826880216598511,1.0414265394210815,0.21339797973632812,0,0,0
578189333,d4:22:cd:00:30:92,0.9218716025352478,-0.031402986496686935,-0.27841758728027344,0.2676999568939209,-0.0706193670630455,0.5103086233139038,0.5937929153442383,0,0,0
578206000,d4:22:cd:00:30:92,0.9194636344909668,-0.031598050147295,-0.2884445786476135,0.2653324604034424,0.5351935029029846,-0.09076160192489624,0.6951065063476562,0,0,0
578222667,d4:22:cd:00:30:92,0.9171233177185059,-0.02944141998887062,-0.2978707253932953,0.2632570266723633,0.5058051347732544,0.023042453452944756,0.577641487121582,0,0,0
578239334,d4:22:cd:00:30:92,0.9149007797241211,-0.026314452290534973,-0.30653804540634155,0.26136514544487,-0.04405798017978668,0.6359236836433411,0.7089405059814453,0,0,0
578256001,d4:22:cd:00:30:92,0.9126588106155396,-0.024647407233715057,-0.3148416578769684,0.259488582611084,-0.5030369162559509,0.9692765474319458,0.7080373764038086,0,0,0
578272668,d4:22:cd:00:30:92,0.9101579785346985,-0.024867035448551178,-0.3236028850078583,0.25746583938598633,-0.43627673387527466,0.5801858305931091,0.8320283889770508,0,0,0
578289335,d4:22:cd:00:30:92,0.9074977040290833,-0.02522478997707367,-0.33263206481933594,0.2553054094314575,0.24292975664138794,0.13984300196170807,0.7171459197998047,0,0,0
578306002,d4:22:cd:00:30:92,0.9047706723213196,-0.023624956607818604,-0.34156545996665955,0.2533341348171234,0.5693874359130859,-0.0012427320471033454,0.737818717956543,0,0,0
578322669,d4:22:cd:00:30:92,0.9021326899528503,-0.020593494176864624,-0.3499705493450165,0.25152820348739624,0.21934086084365845,0.3486451208591461,0.777740478515625,0,0,0
578339336,d4:22:cd:00:30:92,0.8996415734291077,-0.018566273152828217,-0.35790708661079407,0.24943143129348755,-0.634789764881134,0.786116898059845,0.6867361068725586,0,0,0
578356003,d4:22:cd:00:30:92,0.8971571922302246,-0.019427694380283356,-0.3659495711326599,0.2466290444135666,-1.077463150024414,0.8023409247398376,0.5540065765380859,0,0,0
578372670,d4:22:cd:00:30:92,0.8943910002708435,-0.022156894207000732,-0.3746306896209717,0.24339045584201813,-0.6865321397781372,0.017324041575193405,0.6721878051757812,0,0,0
578389337,d4:22:cd:00:30:92,0.8915620446205139,-0.02396225929260254,-0.38324880599975586,0.24015936255455017,0.44206705689430237,-0.40336206555366516,0.7621316909790039,0,0,0
578406004,d4:22:cd:00:30:92,0.8888050317764282,-0.022845327854156494,-0.39138922095298767,0.23734255135059357,0.6654566526412964,-0.09858094900846481,0.8419895172119141,0,0,0
578422671,d4:22:cd:00:30:92,0.8860665559768677,-0.019861087203025818,-0.3991263210773468,0.23495370149612427,0.30115777254104614,0.34588971734046936,0.9642362594604492,0,0,0
578439338,d4:22:cd:00:30:92,0.8832882046699524,-0.016978710889816284,-0.40660545229911804,0.23280613124370575,-0.22874562442302704,0.4666531980037689,0.8318061828613281,0,0,0
578456005,d4:22:cd:00:30:92,0.8803381323814392,-0.015314839780330658,-0.4141286015510559,0.2308264523744583,-0.6016204357147217,0.03779358044266701,0.6721773147583008,0,0,0
578472672,d4:22:cd:00:30:92,0.8775050640106201,-0.014903485774993896,-0.42134249210357666,0.22857490181922913,-0.21380668878555298,0.05829178914427757,0.4654226303100586,0,0,0
578489339,d4:22:cd:00:30:92,0.8746537566184998,-0.015115246176719666,-0.4284399449825287,0.2262851893901825,-0.22916224598884583,0.34427928924560547,0.4361724853515625,0,0,0
578506006,d4:22:cd:00:30:92,0.871672511100769,-0.016378730535507202,-0.43575313687324524,0.22372160851955414,-0.21301589906215668,0.5701646208763123,0.38424015045166016,0,0,0
578522673,d4:22:cd:00:30:92,0.8682478070259094,-0.018459580838680267,-0.4438330829143524,0.220976322889328,-0.2800847589969635,0.21127472817897797,0.3071737289428711,0,0,0
578539340,d4:22:cd:00:30:92,0.8646012544631958,-0.020218178629875183,-0.4521525502204895,0.21823643147945404,0.12869787216186523,-0.3403240740299225,0.6539621353149414,0,0,0
578556007,d4:22:cd:00:30:92,0.8613388538360596,-0.019943714141845703,-0.45949479937553406,0.21581359207630157,0.5741459727287292,-0.24971409142017365,0.8142852783203125,0,0,0
578572674,d4:22:cd:00:30:92,0.8583313822746277,-0.0174054354429245,-0.46602532267570496,0.21400487422943115,0.16287747025489807,0.09594092518091202,0.8857688903808594,0,0,0
578589341,d4:22:cd:00:30:92,0.8554736375808716,-0.01466892659664154,-0.4721161127090454,0.212295264005661,-0.2573123574256897,0.25789114832878113,0.8310823440551758,0,0,0
578606008,d4:22:cd:00:30:92,0.852599024772644,-0.013457924127578735,-0.4782702326774597,0.2101534754037857,-0.5696151852607727,0.37994587421417236,0.4385232925415039,0,0,0
578622675,d4:22:cd:00:30:92,0.8494333028793335,-0.013952717185020447,-0.4850217401981354,0.20745043456554413,-0.5066417455673218,0.08275086432695389,0.25019168853759766,0,0,0
578639342,d4:22:cd:00:30:92,0.8460335731506348,-0.015004664659500122,-0.4921198785305023,0.20453225076198578,0.06819089502096176,-0.06636032462120056,0.16597747802734375,0,0,0
578656009,d4:22:cd:00:30:92,0.8424068689346313,-0.01523926854133606,-0.499263733625412,0.20215687155723572,0.3657746911048889,-0.08914283663034439,0.3849821090698242,0,0,0
578672676,d4:22:cd:00:30:92,0.8387061953544617,-0.014356330037117004,-0.5061909556388855,0.2003745138645172,0.33495697379112244,0.06307468563318253,0.5975503921508789,0,0,0
578689343,d4:22:cd:00:30:92,0.8351295590400696,-0.012816324830055237,-0.5126495361328125,0.19899259507656097,0.17585015296936035,0.14152906835079193,0.6664762496948242,0,0,0
578706010,d4:22:cd:00:30:92,0.8317453861236572,-0.01126188039779663,-0.5186673998832703,0.1976616233587265,-0.06888825446367264,0.17817670106887817,0.5478725433349609,0,0,0
578722677,d4:22:cd:00:30:92,0.8284376859664917,-0.010194867849349976,-0.5245842933654785,0.195989191532135,-0.25650838017463684,0.0980796068906784,0.4855222702026367,0,0,0
578739344,d4:22:cd:00:30:92,0.8251960873603821,-0.009778544306755066,-0.5304911136627197,0.19377392530441284,-0.16819417476654053,0.05436662212014198,0.5236492156982422,0,0,0
578756011,d4:22:cd:00:30:92,0.8219366073608398,-0.009666934609413147,-0.5364450216293335,0.19122396409511566,-0.16358108818531036,-0.00023714725102763623,0.514185905456543,0,0,0
578772678,d4:22:cd:00:30:92,0.8186959028244019,-0.00976051390171051,-0.5423665642738342,0.18839725852012634,-0.1493806391954422,-0.02713782526552677,0.4948692321777344,0,0,0
578789345,d4:22:cd:00:30:92,0.8155128955841064,-0.01007455587387085,-0.54823237657547,0.1851804554462433,-0.18701127171516418,-0.06122288107872009,0.45781707763671875,0,0,0
578806012,d4:22:cd:00:30:92,0.8124049305915833,-0.010873377323150635,-0.5540515780448914,0.18143871426582336,-0.262402206659317,-0.08008915930986404,0.4859018325805664,0,0,0
578822679,d4:22:cd:00:30:92,0.809473991394043,-0.012232661247253418,-0.559695303440094,0.17707766592502594,-0.2264043241739273,-0.12261518090963364,0.6454391479492188,0,0,0
578839346,d4:22:cd:00:30:92,0.8067113161087036,-0.014092206954956055,-0.5651465058326721,0.17216572165489197,-0.1874317079782486,-0.1783270239830017,0.6132526397705078,0,0,0
578856013,d4:22:cd:00:30:92,0.8041285276412964,-0.016435980796813965,-0.5703604221343994,0.1667615920305252,-0.15676259994506836,-0.2686068117618561,0.6455554962158203,0,0,0
578872680,d4:22:cd:00:30:92,0.8017571568489075,-0.019194841384887695,-0.5752695202827454,0.16091974079608917,-0.1324569135904312,-0.2926989197731018,0.6252412796020508,0,0,0
578889347,d4:22:cd:00:30:92,0.7995411157608032,-0.022357508540153503,-0.5799136757850647,0.15474948287010193,-0.11912525445222855,-0.40927860140800476,0.6360282897949219,0,0,0
578906014,d4:22:cd:00:30:92,0.7975165247917175,-0.02582937479019165,-0.5842056274414062,0.1483820080757141,-0.11738721281290054,-0.39992570877075195,0.6660861968994141,0,0,0
578922681,d4:22:cd:00:30:92,0.7956836223602295,-0.029732197523117065,-0.5881379246711731,0.14181169867515564,-0.14611846208572388,-0.31176960468292236,0.7397680282592773,0,0,0
578939348,d4:22:cd:00:30:92,0.7939358353614807,-0.03427174687385559,-0.5918539762496948,0.13495738804340363,-0.15232139825820923,-0.23174695670604706,0.7495231628417969,0,0,0
578956015,d4:22:cd:00:30:92,0.7921865582466125,-0.03934106230735779,-0.5954394340515137,0.1278972327709198,-0.13149714469909668,-0.3562292456626892,0.6892786026000977,0,0,0
578972682,d4:22:cd:00:30:92,0.7904231548309326,-0.04440692067146301,-0.5988752245903015,0.12091812491416931,-0.02468298189342022,-0.5286558270454407,0.5815114974975586,0,0,0
578989349,d4:22:cd:00:30:92,0.788749098777771,-0.04876723885536194,-0.60200434923172,0.11445789039134979,0.1051020473241806,-0.6020894646644592,0.5611495971679688,0,0,0
579006016,d4:22:cd:00:30:92,0.7871845960617065,-0.052102819085121155,-0.6048374772071838,0.10867650806903839,0.29133081436157227,-0.51646888256073,0.6906013488769531,0,0,0
579022683,d4:22:cd:00:30:92,0.7856489419937134,-0.054594576358795166,-0.6074868440628052,0.10367380082607269,0.23842842876911163,-0.35262930393218994,0.7686166763305664,0,0,0
579039350,d4:22:cd:00:30:92,0.7840870022773743,-0.056828513741493225,-0.6100466847419739,0.0991683155298233,0.07499485462903976,-0.2911711037158966,0.6595993041992188,0,0,0
579056017,d4:22:cd:00:30:92,0.7824884653091431,-0.05903962254524231,-0.6125563383102417,0.09494242072105408,0.039234571158885956,-0.3348613977432251,0.47763633728027344,0,0,0
579072684,d4:22:cd:00:30:92,0.780916154384613,-0.06104327738285065,-0.614951491355896,0.0910569578409195,0.04626494646072388,-0.3513989746570587,0.42517662048339844,0,0,0
579089351,d4:22:cd:00:30:92,0.779421329498291,-0.06289166957139969,-0.6171861290931702,0.08741620182991028,0.010109043680131435,-0.27934056520462036,0.4573373794555664,0,0,0
579106018,d4:22:cd:00:30:92,0.7779619097709656,-0.06469421833753586,-0.6193345189094543,0.0838342159986496,-0.03504817187786102,-0.18470390141010284,0.4494295120239258,0,0,0
579122685,d4:22:cd:00:30:92,0.7765029668807983,-0.06654975563287735,-0.6214386224746704,0.08025918900966644,-0.017742011696100235,-0.1967421919107437,0.4525871276855469,0,0,0
579139352,d4:22:cd:00:30:92,0.7750086188316345,-0.06824462115764618,-0.6235578656196594,0.07676765322685242,-0.008158222772181034,-0.3038696050643921,0.41479969024658203,0,0,0
579156019,d4:22:cd:00:30:92,0.7735281586647034,-0.06952457875013351,-0.6256436705589294,0.07351061701774597,0.007274005562067032,-0.40969181060791016,0.3595619201660156,0,0,0
579172686,d4:22:cd:00:30:92,0.7720795273780823,-0.07018715143203735,-0.6276949048042297,0.07056519389152527,0.09953434020280838,-0.3976880609989166,0.27028942108154297,0,0,0
579189353,d4:22:cd:00:30:92,0.7705922722816467,-0.07015593349933624,-0.629814624786377,0.06791642308235168,0.18464674055576324,-0.40627816319465637,0.19988155364990234,0,0,0
579206020,d4:22:cd:00:30:92,0.7690684199333191,-0.06921762973070145,-0.631995677947998,0.06585864722728729,0.22586162388324738,-0.4374513328075409,0.41977596282958984,0,0,0
579222687,d4:22:cd:00:30:92,0.7675053477287292,-0.06764629483222961,-0.6342012882232666,0.06451070308685303,0.157058984041214,-0.34712541103363037,0.3966856002807617,0,0,0
579239354,d4:22:cd:00:30:92,0.7658513784408569,-0.06597328186035156,-0.6364650726318359,0.06359654664993286,0.0378483422100544,-0.31623193621635437,0.2108316421508789,0,0,0
579256021,d4:22:cd:00:30:92,0.7641410231590271,-0.06441716849803925,-0.6387576460838318,0.0627756118774414,-0.020585542544722557,-0.28772851824760437,0.13942909240722656,0,0,0
579272688,d4:22:cd:00:30:92,0.7624123692512512,-0.06299065053462982,-0.6410387754440308,0.06198406219482422,-0.017917245626449585,-0.28734999895095825,0.2002391815185547,0,0,0
579289355,d4:22:cd:00:30:92,0.7607215046882629,-0.06148633360862732,-0.6432496309280396,0.06136208772659302,0.10405109077692032,-0.32409965991973877,0.26993274688720703,0,0,0
579306022,d4:22:cd:00:30:92,0.7591398358345032,-0.05960945785045624,-0.6453226208686829,0.061036765575408936,0.09540069103240967,-0.3322104811668396,0.24901485443115234,0,0,0
579322689,d4:22:cd:00:30:92,0.7576228380203247,-0.057602182030677795,-0.6472998261451721,0.0608757883310318,-0.015354893170297146,-0.2972657382488251,0.224212646484375,0,0,0
579339356,d4:22:cd:00:30:92,0.7561247944831848,-0.05576567351818085,-0.6492332816123962,0.06062011420726776,-0.1275378316640854,-0.2509908974170685,0.14925289154052734,0,0,0
579356023,d4:22:cd:00:30:92,0.754679799079895,-0.05431358516216278,-0.6510908603668213,0.0600188672542572,-0.21720989048480988,-0.2163573056459427,0.1811208724975586,0,0,0
579372690,d4:22:cd:00:30:92,0.7532740831375122,-0.05336707830429077,-0.6528965830802917,0.05890120565891266,-0.1996610015630722,-0.1945008635520935,0.18882465362548828,0,0,0
579389357,d4:22:cd:00:30:92,0.7518540024757385,-0.05301281809806824,-0.6546870470046997,0.05747443437576294,-0.17683003842830658,-0.20916365087032318,0.18700218200683594,0,0,0
579406024,d4:22:cd:00:30:92,0.7504958510398865,-0.05312441289424896,-0.6563764214515686,0.05582958459854126,-0.20063461363315582,-0.25042447447776794,0.12184906005859375,0,0,0
579422691,d4:22:cd:00:30:92,0.7492464184761047,-0.05353324115276337,-0.657914400100708,0.05409097671508789,-0.17886444926261902,-0.31449273228645325,0.13481616973876953,0,0,0
579439358,d4:22:cd:00:30:92,0.7480971217155457,-0.05421106517314911,-0.6593078970909119,0.05232827365398407,-0.21534667909145355,-0.3058391511440277,0.11722946166992188,0,0,0
579456025,d4:22:cd:00:30:92,0.7470575571060181,-0.05512826144695282,-0.6605558395385742,0.05045135319232941,-0.21206596493721008,-0.33458638191223145,0.12297725677490234,0,0,0
579472692,d4:22:cd:00:30:92,0.7461436986923218,-0.05624765157699585,-0.661639392375946,0.048499926924705505,-0.19334854185581207,-0.3489113748073578,0.10555362701416016,0,0,0
579489359,d4:22:cd:00:30:92,0.7453460693359375,-0.05752694606781006,-0.6625710725784302,0.046505361795425415,-0.23005607724189758,-0.3310348093509674,0.1484842300415039,0,0,0
579506026,d4:22:cd:00:30:92,0.7446670532226562,-0.05916614830493927,-0.6633304357528687,0.04445645213127136,-0.3641034960746765,-0.28960728645324707,0.1422443389892578,0,0,0
579522693,d4:22:cd:00:30:92,0.7440576553344727,-0.06133604049682617,-0.663973331451416,0.0420568585395813,-0.4072875380516052,-0.2808966636657715,0.08445453643798828,0,0,0
579539360,d4:22:cd:00:30:92,0.7435343265533447,-0.06399045884609222,-0.6644729375839233,0.039381831884384155,-0.33669722080230713,-0.2516617178916931,0.13718032836914062,0,0,0
579556027,d4:22:cd:00:30:92,0.7430158853530884,-0.06679584085941315,-0.664938747882843,0.03654320538043976,-0.25828129053115845,-0.2976672947406769,0.006526947021484375,0,0,0
579572694,d4:22:cd:00:30:92,0.742432713508606,-0.06933891773223877,-0.6654635667800903,0.0340178906917572,-0.17796191573143005,-0.45447883009910583,0.032901763916015625,0,0,0
579589361,d4:22:cd:00:30:92,0.7418638467788696,-0.07125824689865112,-0.6659901738166809,0.03210519254207611,-0.043180469423532486,-0.5254719257354736,0.08443450927734375,0,0,0
579606028,d4:22:cd:00:30:92,0.7413100004196167,-0.0725560337305069,-0.6665240526199341,0.030888065695762634,-0.0653301551938057,-0.3981948792934418,0.10493850708007812,0,0,0
579622695,d4:22:cd:00:30:92,0.740863025188446,-0.0734470784664154,-0.6669633388519287,0.030012816190719604,-0.15423332154750824,-0.26418355107307434,0.14915180206298828,0,0,0
579639362,d4:22:cd:00:30:92,0.7405634522438049,-0.07437576353549957,-0.667228639125824,0.029212728142738342,-0.1873476654291153,-0.12727302312850952,0.18279647827148438,0,0,0
579656029,d4:22:cd:00:30:92,0.7403692603111267,-0.07566560804843903,-0.6673434972763062,0.02817511558532715,-0.1906583458185196,0.02812899462878704,0.2590322494506836,0,0,0
579672696,d4:22:cd:00:30:92,0.7402151823043823,-0.07754640281200409,-0.6673579812049866,0.026728644967079163,-0.16039736568927765,0.14718271791934967,0.28040313720703125,0,0,0
579689363,d4:22:cd:00:30:92,0.7400261759757996,-0.08000044524669647,-0.6673451066017151,0.025000572204589844,-0.12886102497577667,0.12619346380233765,0.15445327758789062,0,0,0
579706030,d4:22:cd:00:30:92,0.7398014664649963,-0.08262570947408676,-0.6673389077186584,0.023211926221847534,-0.024051334708929062,0.08908986300230026,0.0918426513671875,0,0,0
579722697,d4:22:cd:00:30:92,0.7395520210266113,-0.08505958318710327,-0.667364239692688,0.021585822105407715,0.020808162167668343,0.045094799250364304,0.15953350067138672,0,0,0
579739364,d4:22:cd:00:30:92,0.7393108606338501,-0.08725704252719879,-0.6673905253410339,0.020220190286636353,-0.05545580014586449,0.12725357711315155,0.21767711639404297,0,0,0
579756031,d4:22:cd:00:30:92,0.7390457391738892,-0.0893799364566803,-0.6674430966377258,0.01885432004928589,-0.15845593810081482,0.2465456873178482,0.12333488464355469,0,0,0
579772698,d4:22:cd:00:30:92,0.7386273145675659,-0.09138181805610657,-0.667675256729126,0.01738014817237854,-0.10526029765605927,0.0029014775063842535,0.1250457763671875,0,0,0
579789365,d4:22:cd:00:30:92,0.7381913661956787,-0.0928332731127739,-0.6679890155792236,0.01610657572746277,-0.11840151995420456,-0.18163864314556122,0.22557830810546875,0,0,0
579806032,d4:22:cd:00:30:92,0.7379029393196106,-0.09377484768629074,-0.668201208114624,0.015030130743980408,-0.28958919644355774,-0.08406808227300644,0.15740394592285156,0,0,0
579822699,d4:22:cd:00:30:92,0.737825334072113,-0.0947442427277565,-0.6681764125823975,0.01380881667137146,-0.48698243498802185,0.13427802920341492,-0.07533740997314453,0,0,0
579839366,d4:22:cd:00:30:92,0.737989604473114,-0.0961960181593895,-0.667820394039154,0.012119665741920471,-0.6263561844825745,0.29748663306236267,-0.1076955795288086,0,0,0
579856033,d4:22:cd:00:30:92,0.7382851839065552,-0.09839252382516861,-0.6672103404998779,0.009878531098365784,-0.6434817314147949,0.3410344421863556,0.061614990234375,0,0,0
579872700,d4:22:cd:00:30:92,0.7386438846588135,-0.10129588842391968,-0.6664132475852966,0.007142156362533569,-0.564582109451294,0.4264798164367676,0.14762592315673828,0,0,0
579889367,d4:22:cd:00:30:92,0.7390151023864746,-0.10471155494451523,-0.6654994487762451,0.004011139273643494,-0.5566813945770264,0.5198732614517212,0.19028091430664062,0,0,0
579906034,d4:22:cd:00:30:92,0.7393708825111389,-0.10843872278928757,-0.6645183563232422,0.0006542950868606567,-0.46348094940185547,0.5920968651771545,0.15218448638916016,0,0,0
579922701,d4:22:cd:00:30:92,0.7396659851074219,-0.11194421350955963,-0.6636031866073608,-0.002587750554084778,-0.22395998239517212,0.4788781702518463,0.06663227081298828,0,0,0
579939368,d4:22:cd:00:30:92,0.7398877739906311,-0.11458181589841843,-0.6628895401954651,-0.005265682935714722,-0.09257370233535767,0.3721652626991272,0.031538963317871094,0,0,0
579956035,d4:22:cd:00:30:92,0.7400997877120972,-0.11626943945884705,-0.6623395085334778,-0.007304742932319641,-0.1419249176979065,0.40572869777679443,0.06684684753417969,0,0,0
579972702,d4:22:cd:00:30:92,0.7403015494346619,-0.11755688488483429,-0.661864161491394,-0.009109586477279663,-0.2539876103401184,0.6229652166366577,0.032634735107421875,0,0,0
579989369,d4:22:cd:00:30:92,0.7403526306152344,-0.1189819723367691,-0.6615203619003296,-0.011205270886421204,-0.20343522727489471,0.6344912052154541,0.019945144653320312,0,0,0
580006036,d4:22:cd:00:30:92,0.7401456236839294,-0.12050142139196396,-0.6614323854446411,-0.01357424259185791,0.0066861663945019245,0.4017673432826996,0.0924520492553711,0,0,0
580022703,d4:22:cd:00:30:92,0.7397690415382385,-0.12179473787546158,-0.6615656614303589,-0.01587243378162384,0.12097862362861633,0.1377851814031601,0.17979812622070312,0,0,0
580039370,d4:22:cd:00:30:92,0.7393558025360107,-0.12277823686599731,-0.661791205406189,-0.018000483512878418,0.17115728557109833,0.11148446053266525,0.12288379669189453,0,0,0
580056037,d4:22:cd:00:30:92,0.7388226389884949,-0.12351376563310623,-0.6621897220611572,-0.02009148895740509,0.24170780181884766,0.1801198124885559,-0.009492874145507812,0,0,0
580072704,d4:22:cd:00:30:92,0.7381038069725037,-0.1238512396812439,-0.662866473197937,-0.022020086646080017,0.36469849944114685,0.06365587562322617,-0.0612640380859375,0,0,0
580089371,d4:22:cd:00:30:92,0.7371572256088257,-0.12353536486625671,-0.6639240980148315,-0.02358865737915039,0.5718753337860107,-0.20723223686218262,-0.0147247314453125,0,0,0
580106038,d4:22:cd:00:30:92,0.736133337020874,-0.12265609204769135,-0.6651768684387207,-0.02482326328754425,0.7092852592468262,-0.19821469485759735,0.34457874298095703,0,0,0
580122705,d4:22:cd:00:30:92,0.7349757552146912,-0.12190847098827362,-0.666542112827301,-0.026147425174713135,0.5748221278190613,0.14159008860588074,0.3337726593017578,0,0,0
580139372,d4:22:cd:00:30:92,0.7334670424461365,-0.12189342081546783,-0.6681313514709473,-0.027958661317825317,0.4495793282985687,0.06202490255236626,-0.12750530242919922,0,0,0
580156039,d4:22:cd:00:30:92,0.7316409349441528,-0.12218888103961945,-0.669984757900238,-0.030086129903793335,0.2944979965686798,-0.23790529370307922,-0.23640060424804688,0,0,0
580172706,d4:22:cd:00:30:92,0.7297015190124512,-0.1224389523267746,-0.6719487905502319,-0.03228466212749481,0.08929432183504105,-0.3059065043926239,0.04012298583984375,0,0,0
580189373,d4:22:cd:00:30:92,0.7278046607971191,-0.12314773350954056,-0.6737568974494934,-0.03464207053184509,-0.08095192164182663,-0.3206477165222168,0.20978736877441406,0,0,0
580206040,d4:22:cd:00:30:92,0.725939154624939,-0.12443798780441284,-0.6753886938095093,-0.03729555010795593,-0.2015438675880432,-0.37217092514038086,0.036876678466796875,0,0,0
580222707,d4:22:cd:00:30:92,0.7240896224975586,-0.12620817124843597,-0.6768480539321899,-0.04069104790687561,-0.20095603168010712,-0.5630911588668823,0.005017280578613281,0,0,0
580239374,d4:22:cd:00:30:92,0.7224330306053162,-0.1281985640525818,-0.6779859066009521,-0.04476851224899292,0.04741782695055008,-0.7866408228874207,0.36749935150146484,0,0,0
580256041,d4:22:cd:00:30:92,0.7211156487464905,-0.1299116611480713,-0.6787511706352234,-0.04924687743186951,0.3907413184642792,-0.9194542765617371,0.8945026397705078,0,0,0
580272708,d4:22:cd:00:30:92,0.7200021147727966,-0.13130834698677063,-0.6793041825294495,-0.05398233234882355,0.5161092877388,-0.828914999961853,1.156611442565918,0,0,0
580289375,d4:22:cd:00:30:92,0.7188550233840942,-0.13285449147224426,-0.6797882914543152,-0.05914628505706787,0.4649708867073059,-0.6995449066162109,0.9811830520629883,0,0,0
580306042,d4:22:cd:00:30:92,0.7176114320755005,-0.13471916317939758,-0.6802366971969604,-0.06462301313877106,0.5287846922874451,-0.7696714997291565,0.7131767272949219,0,0,0
580322709,d4:22:cd:00:30:92,0.716237485408783,-0.13657474517822266,-0.6807694435119629,-0.07012426853179932,0.629970371723175,-0.7971636652946472,0.631342887878418,0,0,0
580339376,d4:22:cd:00:30:92,0.7146909236907959,-0.13816358149051666,-0.6815100908279419,-0.07539838552474976,0.44936564564704895,-0.7103276252746582,0.39173316955566406,0,0,0
580356043,d4:22:cd:00:30:92,0.7129669785499573,-0.1396908164024353,-0.6824070811271667,-0.08061295747756958,0.15066739916801453,-0.7512621283531189,0.033667564392089844,0,0,0
580372710,d4:22:cd:00:30:92,0.7111948132514954,-0.1414719521999359,-0.683251678943634,-0.08583827316761017,0.025920797139406204,-0.8844867944717407,-0.13153934478759766,0,0,0
580389377,d4:22:cd:00:30:92,0.7097039818763733,-0.1435278356075287,-0.6836758255958557,-0.09121717512607574,0.04042365774512291,-0.8211885094642639,-0.11705207824707031,0,0,0
580406044,d4:22:cd:00:30:92,0.7087265849113464,-0.14587417244911194,-0.6833891868591309,-0.09705663472414017,0.17019036412239075,-0.6655941605567932,-0.19520092010498047,0,0,0
580422711,d4:22:cd:00:30:92,0.7082468867301941,-0.14890530705451965,-0.6822413206100464,-0.10379595309495926,0.21920228004455566,-0.5694629549980164,-0.11816596984863281,0,0,0
580439378,d4:22:cd:00:30:92,0.7082767486572266,-0.1522289514541626,-0.6803110837936401,-0.1111772358417511,0.4994620382785797,-0.7495681047439575,0.22055530548095703,0,0,0
580456045,d4:22:cd:00:30:92,0.7087460160255432,-0.15548297762870789,-0.6777166724205017,-0.11923619359731674,0.9087393283843994,-0.6954042911529541,0.9193801879882812,0,0,0
580472712,d4:22:cd:00:30:92,0.7091991901397705,-0.15870524942874908,-0.6748271584510803,-0.12833835184574127,1.533630609512329,-0.6505399942398071,2.156475067138672,0,0,0
580489379,d4:22:cd:00:30:92,0.709896445274353,-0.15985095500946045,-0.672341525554657,-0.1358848512172699,1.699308156967163,-0.9998888969421387,1.7370519638061523,0,0,0
580506046,d4:22:cd:00:30:92,0.7109245657920837,-0.15735170245170593,-0.6709000468254089,-0.14047478139400482,1.1677743196487427,-0.6742435097694397,0.007651329040527344,0,0,0
580522713,d4:22:cd:00:30:92,0.7115670442581177,-0.15263652801513672,-0.6707882285118103,-0.14293670654296875,0.7655685544013977,0.20914098620414734,-0.7607088088989258,0,0,0
580539380,d4:22:cd:00:30:92,0.7109972834587097,-0.14865422248840332,-0.6718525290489197,-0.14495477080345154,0.2600090503692627,0.9861342310905457,-0.4392576217651367,0,0,0
580556047,d4:22:cd:00:30:92,0.7089731097221375,-0.1476307511329651,-0.6735849380493164,-0.14784705638885498,-0.26608771085739136,1.273939609527588,-0.32670116424560547,0,0,0
580572714,d4:22:cd:00:30:92,0.7058352828025818,-0.14921057224273682,-0.6755160093307495,-0.152395099401474,-0.561722457408905,0.8514267802238464,-0.769618034362793,0,0,0
580589381,d4:22:cd:00:30:92,0.7020280957221985,-0.1518295705318451,-0.677539587020874,-0.15829601883888245,-0.7087962627410889,0.3535369038581848,-0.7341108322143555,0,0,0
580606048,d4:22:cd:00:30:92,0.6981772780418396,-0.15513882040977478,-0.6790393590927124,-0.16552774608135223,-0.9395429491996765,0.05670925974845886,-0.40932178497314453,0,0,0
580622715,d4:22:cd:00:30:92,0.6947000622749329,-0.15928971767425537,-0.6795050501823425,-0.17408284544944763,-0.8438405394554138,-0.09134320914745331,-0.1464090347290039,0,0,0
580639382,d4:22:cd:00:30:92,0.6916444897651672,-0.164098858833313,-0.6790974140167236,-0.183137446641922,-0.7745770215988159,-0.22057722508907318,-0.12340927124023438,0,0,0
580656049,d4:22:cd:00:30:92,0.6891164779663086,-0.16890357434749603,-0.6781744956970215,-0.19152714312076569,-0.9193239808082581,-0.15518881380558014,-0.2471151351928711,0,0,0
580672716,d4:22:cd:00:30:92,0.6869788765907288,-0.173182874917984,-0.6772333383560181,-0.1985849291086197,-0.9273310899734497,-0.12556181848049164,-0.23125839233398438,0,0,0
580689383,d4:22:cd:00:30:92,0.6852060556411743,-0.17654916644096375,-0.6766009330749512,-0.20383206009864807,-0.6819152235984802,-0.13928773999214172,-0.11727619171142578,0,0,0
580706050,d4:22:cd:00:30:92,0.6837766766548157,-0.17853105068206787,-0.676506519317627,-0.20719151198863983,-0.4268243610858917,-0.12228462100028992,0.057280540466308594,0,0,0
580722717,d4:22:cd:00:30:92,0.6825847625732422,-0.1791934072971344,-0.6770139932632446,-0.20888511836528778,-0.1757621020078659,-0.058245815336704254,0.1934356689453125,0,0,0
580739384,d4:22:cd:00:30:92,0.6814675331115723,-0.17894497513771057,-0.6780213713645935,-0.20947805047035217,0.05175397917628288,0.11468016356229782,0.25496864318847656,0,0,0
580756051,d4:22:cd:00:30:92,0.6802769899368286,-0.17839759588241577,-0.6792110800743103,-0.2099599391222,0.19642452895641327,0.5723017454147339,0.3046531677246094,0,0,0
580772718,d4:22:cd:00:30:92,0.6788731813430786,-0.17844796180725098,-0.6802307367324829,-0.2111562341451645,0.2914421260356903,0.6918665170669556,0.2985544204711914,0,0,0
580789385,d4:22:cd:00:30:92,0.6771868467330933,-0.1793079972267151,-0.6811140179634094,-0.21298731863498688,0.22693762183189392,0.6024115681648254,0.25633716583251953,0,0,0
580806052,d4:22:cd:00:30:92,0.6752104759216309,-0.18074463307857513,-0.6819538474082947,-0.2153473049402237,0.016841700300574303,0.46697595715522766,0.2521800994873047,0,0,0
580822719,d4:22:cd:00:30:92,0.6730034947395325,-0.18277281522750854,-0.6827032566070557,-0.21815115213394165,-0.23489244282245636,0.4780420660972595,0.26994895935058594,0,0,0
580839386,d4:22:cd:00:30:92,0.6706539392471313,-0.18563370406627655,-0.6830950379371643,-0.22171564400196075,-0.4582391083240509,0.5308297276496887,0.28667259216308594,0,0,0
580856053,d4:22:cd:00:30:92,0.668324887752533,-0.18930275738239288,-0.6829752922058105,-0.22597403824329376,-0.5388110876083374,0.21092718839645386,0.28666019439697266,0,0,0
580872720,d4:22:cd:00:30:92,0.6661639213562012,-0.19295121729373932,-0.6826555728912354,-0.23019558191299438,-0.5660863518714905,-0.16232089698314667,0.2650947570800781,0,0,0
580889387,d4:22:cd:00:30:92,0.6643057465553284,-0.19576965272426605,-0.6824550032615662,-0.2337532490491867,-0.5193761587142944,-0.3046104311943054,0.26626110076904297,0,0,0
580906054,d4:22:cd:00:30:92,0.6627779603004456,-0.1974729746580124,-0.6824827790260315,-0.23655924201011658,-0.4521564245223999,-0.2992970943450928,0.27282047271728516,0,0,0
580922721,d4:22:cd:00:30:92,0.6615676283836365,-0.19815941154956818,-0.6827481985092163,-0.23859849572181702,-0.31141120195388794,-0.2988201677799225,0.26938533782958984,0,0,0
580939388,d4:22:cd:00:30:92,0.6605247259140015,-0.19806326925754547,-0.6832501292228699,-0.24012607336044312,-0.24525047838687897,-0.12131012231111526,0.25396251678466797,0,0,0
580956055,d4:22:cd:00:30:92,0.6593784093856812,-0.19755549728870392,-0.6840471029281616,-0.24142231047153473,-0.17575450241565704,0.002357796300202608,0.0056056976318359375,0,0,0
580972722,d4:22:cd:00:30:92,0.6579344868659973,-0.19693845510482788,-0.6851822137832642,-0.2426438331604004,-0.13248774409294128,-0.026730947196483612,-0.1502246856689453,0,0,0
580989389,d4:22:cd:00:30:92,0.6562122702598572,-0.19645805656909943,-0.6865195631980896,-0.2439136803150177,-0.1743105947971344,-0.09030041843652725,-0.10027790069580078,0,0,0
581006056,d4:22:cd:00:30:92,0.654290497303009,-0.19637562334537506,-0.6878132820129395,-0.2454930543899536,-0.16970087587833405,-0.033307064324617386,0.02824687957763672,0,0,0
581022723,d4:22:cd:00:30:92,0.652194082736969,-0.1969081461429596,-0.688906192779541,-0.24757149815559387,-0.2055639773607254,0.11566059291362762,0.0571136474609375,0,0,0
581039390,d4:22:cd:00:30:92,0.6500228047370911,-0.1980905830860138,-0.6896865367889404,-0.2501523196697235,-0.3294370770454407,0.13010576367378235,0.1585245132446289,0,0,0
581056057,d4:22:cd:00:30:92,0.647879958152771,-0.19963796436786652,-0.6902214884757996,-0.2529897689819336,-0.4512735605239868,-0.010412043891847134,0.22272777557373047,0,0,0
581072724,d4:22:cd:00:30:92,0.645890474319458,-0.20117682218551636,-0.690566897392273,-0.2558983266353607,-0.5204383134841919,-0.1684720516204834,0.29122161865234375,0,0,0
581089391,d4:22:cd:00:30:92,0.6441295742988586,-0.20257753133773804,-0.6907246112823486,-0.2587897479534149,-0.50272536277771,-0.2786656320095062,0.2870521545410156,0,0,0
581106058,d4:22:cd:00:30:92,0.6425958871841431,-0.20385047793388367,-0.6907342672348022,-0.26156267523765564,-0.4574344754219055,-0.2820267379283905,0.19416522979736328,0,0,0
581122725,d4:22:cd:00:30:92,0.6412972807884216,-0.20503497123718262,-0.6906551122665405,-0.26402145624160767,-0.4426472783088684,-0.29155421257019043,0.1188821792602539,0,0,0
581139392,d4:22:cd:00:30:92,0.640241801738739,-0.20604334771633148,-0.6906071901321411,-0.26591628789901733,-0.44486185908317566,-0.3987545073032379,0.0882883071899414,0,0,0
581156059,d4:22:cd:00:30:92,0.6394680142402649,-0.20656272768974304,-0.6906989216804504,-0.26713401079177856,-0.37568727135658264,-0.4221169352531433,0.17165470123291016,0,0,0
581172726,d4:22:cd:00:30:92,0.6389484405517578,-0.20657134056091309,-0.6909582614898682,-0.26769959926605225,-0.2819294035434723,-0.4077613949775696,0.1545867919921875,0,0,0
581189393,d4:22:cd:00:30:92,0.6386439204216003,-0.20615744590759277,-0.6914079785346985,-0.26758384704589844,-0.13375551998615265,-0.41010862588882446,0.05306529998779297,0,0,0
581206060,d4:22:cd:00:30:92,0.6385045647621155,-0.20539671182632446,-0.6920379996299744,-0.2668721079826355,0.004388006404042244,-0.3470630943775177,0.012625694274902344,0,0,0
581222727,d4:22:cd:00:30:92,0.6384749412536621,-0.20446611940860748,-0.6927475333213806,-0.26581498980522156,0.08998855203390121,-0.23078513145446777,0.06463336944580078,0,0,0
581239394,d4:22:cd:00:30:92,0.638498067855835,-0.2035360485315323,-0.6934494376182556,-0.2646403908729553,0.189853698015213,-0.13660767674446106,0.03894329071044922,0,0,0
581256061,d4:22:cd:00:30:92,0.6384568810462952,-0.20263218879699707,-0.6941995024681091,-0.2634642720222473,0.2390243113040924,0.004372891504317522,0.051654815673828125,0,0,0
581272728,d4:22:cd:00:30:92,0.638309895992279,-0.20172874629497528,-0.6950329542160034,-0.26231351494789124,0.1653955578804016,0.10053622722625732,0.12901782989501953,0,0,0
581289395,d4:22:cd:00:30:92,0.6380892992019653,-0.20076635479927063,-0.6959496140480042,-0.2611558735370636,0.12490931898355484,0.17061512172222137,0.17958831787109375,0,0,0
581306062,d4:22:cd:00:30:92,0.6378124356269836,-0.19975373148918152,-0.696927011013031,-0.2599995732307434,0.07211824506521225,0.2801394462585449,0.24657440185546875,0,0,0
581322729,d4:22:cd:00:30:92,0.6375430226325989,-0.19881077110767365,-0.6978256106376648,-0.2589709162712097,-0.03204236924648285,0.3291591703891754,0.3054389953613281,0,0,0
581339396,d4:22:cd:00:30:92,0.6372544765472412,-0.19802284240722656,-0.6986145973205566,-0.2581562399864197,-0.05273609235882759,0.3594275712966919,0.3131265640258789,0,0,0
581356063,d4:22:cd:00:30:92,0.6369810700416565,-0.19738967716693878,-0.6992044448852539,-0.25771844387054443,0.04371779412031174,0.3902607560157776,0.3605175018310547,0,0,0
581372730,d4:22:cd:00:30:92,0.6367765069007874,-0.19681572914123535,-0.6996068358421326,-0.25757136940956116,0.05258633941411972,0.3136669397354126,0.3483600616455078,0,0,0
581389397,d4:22:cd:00:30:92,0.6366025805473328,-0.1961229145526886,-0.7000020742416382,-0.2574557960033417,0.0871669203042984,0.22704075276851654,0.23334598541259766,0,0,0
581406064,d4:22:cd:00:30:92,0.6363936066627502,-0.19529347121715546,-0.7004497647285461,-0.25738486647605896,0.20440706610679626,0.20026229321956635,0.2035684585571289,0,0,0
581422731,d4:22:cd:00:30:92,0.6361095309257507,-0.1945059448480606,-0.7008614540100098,-0.257562518119812,0.31642282009124756,0.27168235182762146,0.2632932662963867,0,0,0
581439398,d4:22:cd:00:30:92,0.6356986165046692,-0.19411319494247437,-0.7011368274688721,-0.2581233084201813,0.32253992557525635,0.33195188641548157,0.2088937759399414,0,0,0
581456065,d4:22:cd:00:30:92,0.6351525783538818,-0.19419194757938385,-0.7012889981269836,-0.2589932382106781,0.21564261615276337,0.18316736817359924,0.1531352996826172,0,0,0
581472732,d4:22:cd:00:30:92,0.6344814896583557,-0.1944730430841446,-0.7014527320861816,-0.2599824368953705,0.05503738299012184,0.03165913000702858,0.10864448547363281,0,0,0
581489399,d4:22:cd:00:30:92,0.6337502598762512,-0.194731667637825,-0.7016720175743103,-0.2609787881374359,-0.04089214280247688,-0.011419919319450855,0.08937740325927734,0,0,0
581506066,d4:22:cd:00:30:92,0.6330081820487976,-0.1948918104171753,-0.7019146084785461,-0.2620055377483368,-0.14813008904457092,-0.002745549427345395,0.08706855773925781,0,0,0
581522733,d4:22:cd:00:30:92,0.6323527693748474,-0.1949843019247055,-0.7021342515945435,-0.2629292905330658,-0.21859969198703766,-0.12375898659229279,0.03301048278808594,0,0,0
581539400,d4:22:cd:00:30:92,0.6317721009254456,-0.19500820338726044,-0.7023708820343018,-0.263674259185791,-0.2064271718263626,-0.1847895085811615,0.05056476593017578,0,0,0
581556067,d4:22:cd:00:30:92,0.6312467455863953,-0.19495134055614471,-0.7026401162147522,-0.26425686478614807,-0.13677741587162018,-0.28254765272140503,0.07188034057617188,0,0,0
581572734,d4:22:cd:00:30:92,0.6307824850082397,-0.19473284482955933,-0.7029982805252075,-0.2645736634731293,-0.05839812383055687,-0.3205315172672272,0.061020851135253906,0,0,0
581589401,d4:22:cd:00:30:92,0.6303979754447937,-0.19438908994197845,-0.703408420085907,-0.26465296745300293,0.04254882037639618,-0.28485703468322754,0.13017559051513672,0,0,0
581606068,d4:22:cd:00:30:92,0.6300544142723083,-0.19410501420497894,-0.7037936449050903,-0.26465559005737305,0.08092644065618515,-0.17841441929340363,0.16411781311035156,0,0,0
581622735,d4:22:cd:00:30:92,0.6296865344047546,-0.1940547078847885,-0.704126238822937,-0.2646833062171936,0.028505053371191025,-0.10763747990131378,0.11991214752197266,0,0,0
581639402,d4:22:cd:00:30:92,0.6293103098869324,-0.19417478144168854,-0.7044076919555664,-0.2647410035133362,-0.043618105351924896,-0.14236101508140564,0.12913131713867188,0,0,0
581656069,d4:22:cd:00:30:92,0.6289768815040588,-0.1944102942943573,-0.7045901417732239,-0.264875203371048,-0.10781370848417282,-0.04470725730061531,0.2566394805908203,0,0,0
581672736,d4:22:cd:00:30:92,0.6286614537239075,-0.19469794631004333,-0.7047178149223328,-0.26507294178009033,-0.15677019953727722,-0.014927983283996582,0.23638439178466797,0,0,0
581689403,d4:22:cd:00:30:92,0.6284245252609253,-0.1948074996471405,-0.704850971698761,-0.2652001976966858,-0.2325129210948944,-0.06899300217628479,0.2169322967529297,0,0,0
581706070,d4:22:cd:00:30:92,0.6283235549926758,-0.19460126757621765,-0.7050234079360962,-0.26513242721557617,-0.28549712896347046,-0.1507353037595749,0.16914081573486328,0,0,0
581722737,d4:22:cd:00:30:92,0.6283482313156128,-0.1940740942955017,-0.7052758932113647,-0.26478832960128784,-0.2495531141757965,-0.13482250273227692,0.12963485717773438,0,0,0
581739404,d4:22:cd:00:30:92,0.6284119486808777,-0.19340765476226807,-0.7055569291114807,-0.264375776052475,-0.12049806863069534,0.03122198022902012,0.11728191375732422,0,0,0
581756071,d4:22:cd:00:30:92,0.6284313797950745,-0.1929236203432083,-0.7057981491088867,-0.26403912901878357,-0.0762501060962677,0.059344783425331116,0.08821964263916016,0,0,0
581772738,d4:22:cd:00:30:92,0.6284042596817017,-0.19261862337589264,-0.706003725528717,-0.2637765407562256,0.014996378682553768,-0.007943874225020409,0.14757823944091797,0,0,0
581789405,d4:22:cd:00:30:92,0.6283096075057983,-0.1924075186252594,-0.7062294483184814,-0.263552188873291,0.052372660487890244,-0.04854109138250351,0.16141986846923828,0,0,0
581806072,d4:22:cd:00:30:92,0.6281460523605347,-0.1922314465045929,-0.706474244594574,-0.2634141445159912,0.006093410309404135,-0.022464001551270485,0.17931365966796875,0,0,0
581822739,d4:22:cd:00:30:92,0.6279777884483337,-0.19200848042964935,-0.7067142128944397,-0.26333388686180115,-0.06745531409978867,-0.025609081611037254,0.19315338134765625,0,0,0
581839406,d4:22:cd:00:30:92,0.6278018951416016,-0.19174934923648834,-0.7069625854492188,-0.2632753252983093,-0.1478278934955597,0.0004767810751218349,0.15900897979736328,0,0,0
581856073,d4:22:cd:00:30:92,0.6276515126228333,-0.19142493605613708,-0.7072108387947083,-0.26320353150367737,-0.16647468507289886,-0.06526879966259003,0.18529129028320312,0,0,0
581872740,d4:22:cd:00:30:92,0.6275536417961121,-0.19101601839065552,-0.7074496150016785,-0.26309213042259216,-0.2104700803756714,-0.028754843398928642,0.19066429138183594,0,0,0
581889407,d4:22:cd:00:30:92,0.6275110840797424,-0.19067011773586273,-0.7076054215431213,-0.2630254924297333,-0.2210163176059723,0.03910423442721367,0.1658163070678711,0,0,0
581906074,d4:22:cd:00:30:92,0.6275240182876587,-0.19041724503040314,-0.7076876759529114,-0.26295679807662964,-0.17489397525787354,0.049437377601861954,0.13100624084472656,0,0,0
581922741,d4:22:cd:00:30:92,0.6275847554206848,-0.190168559551239,-0.7077316045761108,-0.26287341117858887,-0.144464910030365,-0.017823509871959686,0.12803936004638672,0,0,0
581939408,d4:22:cd:00:30:92,0.6276794672012329,-0.18988239765167236,-0.7077802419662476,-0.26272326707839966,-0.06339006125926971,-0.05073579400777817,0.13618183135986328,0,0,0
581956075,d4:22:cd:00:30:92,0.6277585029602051,-0.18955402076244354,-0.7078681588172913,-0.262534499168396,-0.04363509267568588,-0.01209674496203661,0.15015411376953125,0,0,0
581972742,d4:22:cd:00:30:92,0.6278018951416016,-0.18919532001018524,-0.7079838514328003,-0.26237741112709045,-0.030443359166383743,0.0237027108669281,0.1242971420288086,0,0,0
581989409,d4:22:cd:00:30:92,0.6278062462806702,-0.18884728848934174,-0.7081226110458374,-0.2622433602809906,-0.04695962369441986,0.027446748688817024,0.11382007598876953,0,0,0
582006076,d4:22:cd:00:30:92,0.6277877688407898,-0.18846632540225983,-0.7082909941673279,-0.2621069848537445,-0.06909143179655075,0.04338124021887779,0.1335744857788086,0,0,0
582022743,d4:22:cd:00:30:92,0.6277462244033813,-0.18809637427330017,-0.7084539532661438,-0.2620317339897156,-0.013537732884287834,0.09089517593383789,0.20943737030029297,0,0,0
582039410,d4:22:cd:00:30:92,0.6276684999465942,-0.18783581256866455,-0.7085745334625244,-0.2620791494846344,-0.05648842826485634,0.15149922668933868,0.20655536651611328,0,0,0
582056077,d4:22:cd:00:30:92,0.6275390982627869,-0.18772415816783905,-0.7086443901062012,-0.2622801661491394,-0.11998756229877472,0.11106143891811371,0.1736593246459961,0,0,0
582072744,d4:22:cd:00:30:92,0.6273784041404724,-0.1875954568386078,-0.7087252140045166,-0.26253771781921387,-0.11271758377552032,-0.016442004591226578,0.17674636840820312,0,0,0
582089411,d4:22:cd:00:30:92,0.6272256970405579,-0.1873914897441864,-0.7088025212287903,-0.2628391683101654,-0.15551450848579407,0.033454861491918564,0.16582012176513672,0,0,0
582106078,d4:22:cd:00:30:92,0.6270532608032227,-0.18728318810462952,-0.7088315486907959,-0.26324957609176636,-0.16327129304409027,0.0371553972363472,0.15268230438232422,0,0,0
582122745,d4:22:cd:00:30:92,0.6268723011016846,-0.18724048137664795,-0.7088326811790466,-0.26370739936828613,-0.1940995454788208,0.00098667002748698,0.10464954376220703,0,0,0
582139412,d4:22:cd:00:30:92,0.6266918182373047,-0.18720278143882751,-0.7088446021080017,-0.2641308903694153,-0.14717747271060944,-0.08813063055276871,0.09830379486083984,0,0,0
582156079,d4:22:cd:00:30:92,0.6265329122543335,-0.18710267543792725,-0.7088996767997742,-0.26443055272102356,-0.13853734731674194,-0.07687357813119888,0.0940866470336914,0,0,0
582172746,d4:22:cd:00:30:92,0.626409113407135,-0.18698598444461823,-0.7089732885360718,-0.2646090090274811,-0.10725045949220657,-0.12520191073417664,0.059943199157714844,0,0,0
582189413,d4:22:cd:00:30:92,0.626295804977417,-0.18682120740413666,-0.7091116309165955,-0.26462292671203613,-0.11551506817340851,-0.13568615913391113,0.050583839416503906,0,0,0
582206080,d4:22:cd:00:30:92,0.6261401772499084,-0.1866828054189682,-0.7093172073364258,-0.26453810930252075,-0.08387770503759384,-0.12892691791057587,0.051697731018066406,0,0,0
582222747,d4:22:cd:00:30:92,0.6259667277336121,-0.1865530163049698,-0.7095644474029541,-0.26437705755233765,-0.08587412536144257,-0.08567173033952713,0.10548019409179688,0,0,0
582239414,d4:22:cd:00:30:92,0.6258241534233093,-0.18644391000270844,-0.7098087668418884,-0.2641354203224182,-0.11448869854211807,-0.10936188697814941,0.11647987365722656,0,0,0
582256081,d4:22:cd:00:30:92,0.6257115006446838,-0.18631374835968018,-0.7100632786750793,-0.26381003856658936,-0.12992674112319946,-0.04336905851960182,0.15111160278320312,0,0,0
582272748,d4:22:cd:00:30:92,0.6256124973297119,-0.1861080825328827,-0.7103556394577026,-0.2634027898311615,-0.12460266053676605,-0.007540349382907152,0.11680316925048828,0,0,0
582289415,d4:22:cd:00:30:92,0.625524640083313,-0.18583662807941437,-0.7106973528862,-0.26288020610809326,-0.12760712206363678,-0.03509075194597244,0.1253194808959961,0,0,0
582306082,d4:22:cd:00:30:92,0.6254304647445679,-0.18548238277435303,-0.7110885381698608,-0.2622961103916168,-0.12399694323539734,0.03812270611524582,0.15624237060546875,0,0,0
582322749,d4:22:cd:00:30:92,0.6253286600112915,-0.18519312143325806,-0.711432933807373,-0.26180922985076904,-0.11629736423492432,0.11650772392749786,0.18821048736572266,0,0,0
582339416,d4:22:cd:00:30:92,0.6252210736274719,-0.18500708043575287,-0.7117054462432861,-0.2614564001560211,-0.12513774633407593,0.11053081601858139,0.22642993927001953,0,0,0
582356083,d4:22:cd:00:30:92,0.6250975131988525,-0.18490582704544067,-0.7119182348251343,-0.2612439692020416,-0.11583827435970306,0.06850685924291611,0.22099876403808594,0,0,0
582372750,d4:22:cd:00:30:92,0.6249752640724182,-0.18481282889842987,-0.7121018171310425,-0.2611020803451538,-0.10679136216640472,0.043242353945970535,0.21609783172607422,0,0,0
582389417,d4:22:cd:00:30:92,0.6249046325683594,-0.1846768856048584,-0.7122340202331543,-0.2610069513320923,-0.15839603543281555,0.05798577144742012,0.2183542251586914,0,0,0
582406084,d4:22:cd:00:30:92,0.6248956322669983,-0.18446266651153564,-0.7123407125473022,-0.26088887453079224,-0.11439705640077591,0.003987052012234926,0.19366455078125,0,0,0
582422751,d4:22:cd:00:30:92,0.6249322891235352,-0.18418821692466736,-0.7124267816543579,-0.2607598900794983,-0.12711405754089355,0.04388422518968582,0.1786031723022461,0,0,0
582439418,d4:22:cd:00:30:92,0.624950647354126,-0.18400618433952332,-0.7124705910682678,-0.26072433590888977,-0.08119599521160126,0.04436438903212547,0.183197021484375,0,0,0
582456085,d4:22:cd:00:30:92,0.6249585747718811,-0.1839050054550171,-0.7124775052070618,-0.26075801253318787,-0.03321715444326401,0.026348015293478966,0.18807506561279297,0,0,0
582472752,d4:22:cd:00:30:92,0.624955952167511,-0.18383479118347168,-0.7124670147895813,-0.2608424127101898,-0.030906924977898598,0.05107181519269943,0.1859598159790039,0,0,0
582489419,d4:22:cd:00:30:92,0.624921441078186,-0.183851957321167,-0.7124384641647339,-0.26099079847335815,0.008693313226103783,0.05701069533824921,0.16878604888916016,0,0,0
582506086,d4:22:cd:00:30:92,0.6248407959938049,-0.18390604853630066,-0.7124193906784058,-0.26119813323020935,-0.020983843132853508,0.04639240354299545,0.16681671142578125,0,0,0
582522753,d4:22:cd:00:30:92,0.624712347984314,-0.1840238869190216,-0.712383508682251,-0.2615198493003845,-0.08221879601478577,0.022063495591282845,0.1601886749267578,0,0,0
582539420,d4:22:cd:00:30:92,0.6245794296264648,-0.1841748058795929,-0.7123230695724487,-0.26189517974853516,-0.11860714852809906,-0.015846481546759605,0.13657760620117188,0,0,0
582556087,d4:22:cd:00:30:92,0.6244544982910156,-0.18427664041519165,-0.712290346622467,-0.2622101902961731,-0.13438671827316284,-0.043370623141527176,0.10976982116699219,0,0,0
582572754,d4:22:cd:00:30:92,0.6243897676467896,-0.18424543738365173,-0.7122828364372253,-0.2624070942401886,-0.10725850611925125,-0.052193235605955124,0.1632099151611328,0,0,0
582589421,d4:22:cd:00:30:92,0.6243646740913391,-0.18417930603027344,-0.7122596502304077,-0.26257601380348206,-0.12146767228841782,-0.03620585799217224,0.1354541778564453,0,0,0
582606088,d4:22:cd:00:30:92,0.6243695616722107,-0.18416740000247955,-0.7122098803520203,-0.26270750164985657,-0.13026155531406403,-0.09416002780199051,0.10681629180908203,0,0,0
582622755,d4:22:cd:00:30:92,0.6243833899497986,-0.18409699201583862,-0.71219801902771,-0.26275625824928284,-0.07493763417005539,-0.08848271518945694,0.14516735076904297,0,0,0
582639422,d4:22:cd:00:30:92,0.6244156360626221,-0.1839880794286728,-0.7121887803077698,-0.2627811133861542,-0.045192085206508636,-0.11178025603294373,0.16634559631347656,0,0,0
582656089,d4:22:cd:00:30:92,0.6244713068008423,-0.18385829031467438,-0.7122002243995667,-0.2627083659172058,-0.04661630839109421,-0.0909966230392456,0.1441965103149414,0,0,0
582672756,d4:22:cd:00:30:92,0.6245176196098328,-0.18374928832054138,-0.7122341990470886,-0.26258254051208496,-0.05794886127114296,-0.09767100214958191,0.11388492584228516,0,0,0
582689423,d4:22:cd:00:30:92,0.6245425939559937,-0.18363800644874573,-0.7123002409934998,-0.26242202520370483,-0.08301807940006256,-0.0751417875289917,0.09303855895996094,0,0,0
582706090,d4:22:cd:00:30:92,0.6245643496513367,-0.18349744379520416,-0.712397038936615,-0.2622055411338806,-0.06517279893159866,-0.004228613805025816,0.13597869873046875,0,0,0
582722757,d4:22:cd:00:30:92,0.6245754957199097,-0.18341314792633057,-0.7124499082565308,-0.2620944678783417,-0.07711464911699295,0.04556263983249664,0.18114566802978516,0,0,0
582739424,d4:22:cd:00:30:92,0.6246128678321838,-0.18335647881031036,-0.7124528884887695,-0.2620368003845215,-0.08046555519104004,0.022797847166657448,0.14252853393554688,0,0,0
582756091,d4:22:cd:00:30:92,0.6245952844619751,-0.18331263959407806,-0.7124775052070618,-0.2620422840118408,-0.10986064374446869,0.026265565305948257,0.13393592834472656,0,0,0
582772758,d4:22:cd:00:30:92,0.6245405673980713,-0.18327681720256805,-0.7125136852264404,-0.2620992660522461,-0.10553789883852005,0.04775787517428398,0.1542186737060547,0,0,0
582789425,d4:22:cd:00:30:92,0.6244841814041138,-0.18316270411014557,-0.7125659584999084,-0.26217126846313477,-0.14488288760185242,-0.031010160222649574,0.1511363983154297,0,0,0
582806092,d4:22:cd:00:30:92,0.6244443655014038,-0.18288850784301758,-0.7126920223236084,-0.26211535930633545,-0.15788283944129944,-0.09121083468198776,0.10202407836914062,0,0,0
582822759,d4:22:cd:00:30:92,0.6244459748268127,-0.1824752390384674,-0.712871253490448,-0.2619117498397827,-0.13624097406864166,-0.08069932460784912,0.10317420959472656,0,0,0
582839426,d4:22:cd:00:30:92,0.6244663596153259,-0.18198519945144653,-0.713078498840332,-0.2616404592990875,-0.09328983724117279,-0.08929180353879929,0.13089370727539062,0,0,0
582856093,d4:22:cd:00:30:92,0.6245269179344177,-0.18147870898246765,-0.7132892608642578,-0.2612730860710144,-0.08561664074659348,-0.07793424278497696,0.10181617736816406,0,0,0
582872760,d4:22:cd:00:30:92,0.6245949268341064,-0.18104180693626404,-0.7134939432144165,-0.26085400581359863,-0.053551021963357925,-0.04427732899785042,0.118499755859375,0,0,0
582889427,d4:22:cd:00:30:92,0.6246317028999329,-0.18071909248828888,-0.7136813402175903,-0.26047655940055847,-0.046788860112428665,-0.006077875848859549,0.1593170166015625,0,0,0
582906094,d4:22:cd:00:30:92,0.6246392130851746,-0.18045921623706818,-0.7138746976852417,-0.2601085901260376,-0.07216384261846542,-0.001962359994649887,0.13623428344726562,0,0,0
582922761,d4:22:cd:00:30:92,0.624632716178894,-0.1802222579717636,-0.7140555381774902,-0.2597920298576355,-0.030673576518893242,0.018032941967248917,0.18329906463623047,0,0,0
582939428,d4:22:cd:00:30:92,0.6246206164360046,-0.18007753789424896,-0.7141625285148621,-0.2596272826194763,-0.06494839489459991,0.1540093719959259,0.26560306549072266,0,0,0
582956095,d4:22:cd:00:30:92,0.6246111989021301,-0.1801176220178604,-0.7141504287719727,-0.259655237197876,-0.13836480677127838,0.16937923431396484,0.20477008819580078,0,0,0
582972762,d4:22:cd:00:30:92,0.6245928406715393,-0.18029236793518066,-0.7140612006187439,-0.25982362031936646,-0.1329861879348755,0.0751083716750145,0.16530895233154297,0,0,0
582989429,d4:22:cd:00:30:92,0.6245740652084351,-0.18043512105941772,-0.7139571309089661,-0.26005566120147705,-0.13224591314792633,0.02477576769888401,0.19147777557373047,0,0,0
583006096,d4:22:cd:00:30:92,0.6246187686920166,-0.18049529194831848,-0.7138051390647888,-0.2603234052658081,-0.15789669752120972,0.0020111696794629097,0.1562051773071289,0,0,0
583022763,d4:22:cd:00:30:92,0.6247121095657349,-0.1804111748933792,-0.7136957049369812,-0.2604576051235199,-0.19189570844173431,-0.05306052416563034,0.112640380859375,0,0,0
583039430,d4:22:cd:00:30:92,0.6248716711997986,-0.1800999790430069,-0.7136538624763489,-0.2604052424430847,-0.12016056478023529,-0.037647794932127,0.1262836456298828,0,0,0
583056097,d4:22:cd:00:30:92,0.6250721216201782,-0.17968232929706573,-0.7136510610580444,-0.26022034883499146,-0.06450807303190231,-0.09879616647958755,0.13876056671142578,0,0,0
583072764,d4:22:cd:00:30:92,0.6252842545509338,-0.17923778295516968,-0.7136749625205994,-0.25995153188705444,0.010340603068470955,-0.0742102712392807,0.17860984802246094,0,0,0
583089431,d4:22:cd:00:30:92,0.625494658946991,-0.17876829206943512,-0.7137313485145569,-0.25961384177207947,-0.0006714329356327653,-0.03741763159632683,0.14722919464111328,0,0,0
583106098,d4:22:cd:00:30:92,0.6256978511810303,-0.17830049991607666,-0.7138270139694214,-0.2591821253299713,0.0017836333718150854,-0.042848244309425354,0.11278343200683594,0,0,0
583122765,d4:22:cd:00:30:92,0.6258489489555359,-0.17783474922180176,-0.7139955163002014,-0.25867289304733276,0.02028469555079937,-0.01816478557884693,0.13637733459472656,0,0,0
