sep=,
Measurement Mode:,Extended (Quaternion)
StartTime:,Tue, 31 May 2022 12:17:33 GMT
© Xsens Technologies B. V. 2005-2022

Timestamp,Address,Quaternion_w,Quaternion_x,Quaternion_y,Quaternion_z,FreeAcc_x,FreeAcc_y,FreeAcc_z,Status,ClipCountAcc,ClipCountGyr
3564436329,d4:22:cd:00:30:92,0.31593334674835205,-0.009622212499380112,0.00029346696101129055,-0.9487382173538208,0.006987433880567551,-0.005084039643406868,0.09014606475830078,0,0,0
3564452996,d4:22:cd:00:30:92,0.31595656275749207,-0.009614302776753902,0.00029033771716058254,-0.9487307071685791,0.011154922656714916,-0.00487049063667655,0.07973957061767578,0,0,0
3564469663,d4:22:cd:00:30:92,0.3159348964691162,-0.009613816626369953,0.00029248790815472603,-0.9487379193305969,-0.0009205485694110394,-0.0009477962157689035,0.07457828521728516,0,0,0
3564486330,d4:22:cd:00:30:92,0.3159681558609009,-0.009612596593797207,0.0002884624991565943,-0.9487268328666687,-0.005837447475641966,0.0052430410869419575,0.07030487060546875,0,0,0
3564502997,d4:22:cd:00:30:92,0.31604140996932983,-0.009611096233129501,0.0002867812290787697,-0.948702335357666,-0.00418951828032732,-0.010304066352546215,0.08962631225585938,0,0,0
3564519664,d4:22:cd:00:30:92,0.31605833768844604,-0.0096143689006567,0.00027678324840962887,-0.9486967325210571,0.009127994999289513,0.009808928705751896,0.08022403717041016,0,0,0
3564536331,d4:22:cd:00:30:92,0.31605422496795654,-0.00961376167833805,0.00026738597080111504,-0.9486981630325317,-0.011683444492518902,-0.00614381255581975,0.07885265350341797,0,0,0
3564552998,d4:22:cd:00:30:92,0.3160804510116577,-0.009610902518033981,0.00025638961233198643,-0.9486894607543945,-0.002128087915480137,0.0047675627283751965,0.07993221282958984,0,0,0
3564569665,d4:22:cd:00:30:92,0.31605440378189087,-0.009618617594242096,0.00026236590929329395,-0.9486980438232422,0.015987208113074303,-0.007852192036807537,0.07572746276855469,0,0,0
3564586332,d4:22:cd:00:30:92,0.31603431701660156,-0.009618079289793968,0.0002619684673845768,-0.948704719543457,-0.021175138652324677,-0.0009733325568959117,0.0785074234008789,0,0,0
3564602999,d4:22:cd:00:30:92,0.31607604026794434,-0.009610861539840698,0.00026316544972360134,-0.9486908912658691,-0.0004467430408112705,-0.0011084391735494137,0.08071041107177734,0,0,0
3564619666,d4:22:cd:00:30:92,0.31612133979797363,-0.00961009506136179,0.00025995634496212006,-0.948675811290741,0.002092737937346101,-0.007532683666795492,0.08269309997558594,0,0,0
3564636333,d4:22:cd:00:30:92,0.3161545991897583,-0.009609191678464413,0.0002643708139657974,-0.948664665222168,0.0003852979280054569,-0.01806892268359661,0.08138275146484375,0,0,0
3564653000,d4:22:cd:00:30:92,0.31616443395614624,-0.009604133665561676,0.0002481704577803612,-0.9486615061759949,-0.0027677505277097225,0.00011994613305432722,0.07741069793701172,0,0,0
3564669667,d4:22:cd:00:30:92,0.31618359684944153,-0.009592408314347267,0.00023870565928518772,-0.9486552476882935,0.001026362762786448,0.004166497848927975,0.08526420593261719,0,0,0
3564686334,d4:22:cd:00:30:92,0.31620287895202637,-0.009588906541466713,0.00024253944866359234,-0.9486488699913025,-0.0054338653571903706,-0.008727600798010826,0.07040119171142578,0,0,0
3564703001,d4:22:cd:00:30:92,0.3161572813987732,-0.009583115577697754,0.0002457299269735813,-0.948664128780365,0.0015444797463715076,0.004906423855572939,0.08069133758544922,0,0,0
3564719668,d4:22:cd:00:30:92,0.31611695885658264,-0.009587692096829414,0.00024340488016605377,-0.9486775398254395,0.0018220357596874237,0.0011269558453932405,0.07690620422363281,0,0,0
3564736335,d4:22:cd:00:30:92,0.31606394052505493,-0.009589496068656445,0.0002448614686727524,-0.9486951231956482,0.0009050738299265504,-0.014238529838621616,0.08914756774902344,0,0,0
3564753002,d4:22:cd:00:30:92,0.31606924533843994,-0.009585103020071983,0.00024314550682902336,-0.9486933946609497,0.0031768123153597116,0.00034963362850248814,0.08726310729980469,0,0,0
3564769669,d4:22:cd:00:30:92,0.3160048723220825,-0.00958418007940054,0.0002497041132301092,-0.9487149119377136,-0.004348470829427242,-0.008909949101507664,0.07753944396972656,0,0,0
3564786336,d4:22:cd:00:30:92,0.31595611572265625,-0.009582673199474812,0.00025726831518113613,-0.9487311840057373,0.009014547802507877,-0.009511290118098259,0.08717632293701172,0,0,0
3564803003,d4:22:cd:00:30:92,0.315949410200119,-0.009580033831298351,0.0002510992344468832,-0.9487334489822388,-0.008000986650586128,-0.007856682874262333,0.07550811767578125,0,0,0
3564819670,d4:22:cd:00:30:92,0.3159911632537842,-0.00957722682505846,0.00025034649297595024,-0.9487196207046509,0.010193098336458206,-0.005637181922793388,0.08094310760498047,0,0,0
3564836337,d4:22:cd:00:30:92,0.31599369645118713,-0.009590037167072296,0.000246209092438221,-0.9487184882164001,-0.0022510914131999016,-0.0024852370843291283,0.07827281951904297,0,0,0
3564853004,d4:22:cd:00:30:92,0.3160113990306854,-0.009590920060873032,0.0002401275560259819,-0.9487127065658569,0.005166367627680302,-0.0017076180083677173,0.08258533477783203,0,0,0
3564869671,d4:22:cd:00:30:92,0.3160129189491272,-0.009590702131390572,0.000228542136028409,-0.9487122297286987,-0.009949090890586376,-0.006938341539353132,0.08260536193847656,0,0,0
3564886338,d4:22:cd:00:30:92,0.3160189390182495,-0.00957632064819336,0.00021952460519969463,-0.9487103223800659,-0.0074934340082108974,-0.011386564001441002,0.06589508056640625,0,0,0
3564903005,d4:22:cd:00:30:92,0.31602907180786133,-0.009572259150445461,0.00021649734117090702,-0.9487069845199585,0.0034823266323655844,0.00020615577523130924,0.08035469055175781,0,0,0
3564919672,d4:22:cd:00:30:92,0.31599175930023193,-0.00957504939287901,0.00022755167447030544,-0.9487192630767822,0.010584134608507156,-0.008591355755925179,0.08989620208740234,0,0,0
3564936339,d4:22:cd:00:30:92,0.31601953506469727,-0.009574261493980885,0.0002223618794232607,-0.9487101435661316,0.008791623637080193,-0.007443721871823072,0.071075439453125,0,0,0
3564953006,d4:22:cd:00:30:92,0.3159666657447815,-0.009571670554578304,0.00022411812096834183,-0.9487277865409851,-0.021430760622024536,-0.004753324203193188,0.0714559555053711,0,0,0
3564969673,d4:22:cd:00:30:92,0.3159548044204712,-0.009585905820131302,0.00023161876015365124,-0.9487316608428955,0.004085589665919542,0.0029334223363548517,0.08141326904296875,0,0,0
3564986340,d4:22:cd:00:30:92,0.3159690499305725,-0.009573540650308132,0.00023688096553087234,-0.9487268924713135,-0.006154546048492193,0.001786951208487153,0.08498573303222656,0,0,0
3565003007,d4:22:cd:00:30:92,0.31591087579727173,-0.009580857120454311,0.00024377787485718727,-0.9487461447715759,-0.0010102855740115047,0.003352149622514844,0.09112167358398438,0,0,0
3565019674,d4:22:cd:00:30:92,0.3159012794494629,-0.009575522504746914,0.0002393836621195078,-0.9487495422363281,0.007798152044415474,0.009616970084607601,0.0980072021484375,0,0,0
3565036341,d4:22:cd:00:30:92,0.3158489167690277,-0.009578903205692768,0.00023252516984939575,-0.948766827583313,-0.0009164729854092002,-0.004182384815067053,0.07010459899902344,0,0,0
3565053008,d4:22:cd:00:30:92,0.3158397078514099,-0.009581947699189186,0.0002384765539318323,-0.9487698674201965,-0.004227031487971544,0.0014792890287935734,0.08202934265136719,0,0,0
3565069675,d4:22:cd:00:30:92,0.31585752964019775,-0.009580805897712708,0.0002432260662317276,-0.9487640857696533,0.014614542946219444,-0.00246105226688087,0.07727527618408203,0,0,0
3565086342,d4:22:cd:00:30:92,0.31584635376930237,-0.009585430845618248,0.0002452838234603405,-0.9487676024436951,0.0008094434160739183,0.0021858031395822763,0.08098411560058594,0,0,0
3565103009,d4:22:cd:00:30:92,0.31586551666259766,-0.009592795744538307,0.000241848174482584,-0.9487611651420593,0.006545695476233959,-0.007048222701996565,0.08738899230957031,0,0,0
3565119676,d4:22:cd:00:30:92,0.31591856479644775,-0.009598399512469769,0.00024391012266278267,-0.9487433433532715,-0.0018054834799841046,-0.00017220276640728116,0.08711528778076172,0,0,0
3565136343,d4:22:cd:00:30:92,0.315939724445343,-0.009584063664078712,0.00024321372620761395,-0.9487366676330566,0.001167303416877985,-0.00011771798745030537,0.08745574951171875,0,0,0
3565153010,d4:22:cd:00:30:92,0.31591367721557617,-0.009583047591149807,0.0002461893018335104,-0.9487453103065491,-0.0032235649414360523,0.005813669878989458,0.07733440399169922,0,0,0
3565169677,d4:22:cd:00:30:92,0.3159008026123047,-0.00959288701415062,0.0002477136440575123,-0.9487494230270386,-0.003542488208040595,0.004694138653576374,0.081085205078125,0,0,0
3565186344,d4:22:cd:00:30:92,0.3159204125404358,-0.009596741758286953,0.00024580047465860844,-0.9487429857254028,0.011931462213397026,-0.008364462293684483,0.07581901550292969,0,0,0
3565203011,d4:22:cd:00:30:92,0.3159589469432831,-0.00958661362528801,0.000241817906498909,-0.9487302303314209,-0.0031741056591272354,0.0011265123030170798,0.08065128326416016,0,0,0
3565219678,d4:22:cd:00:30:92,0.31595680117607117,-0.00958165992051363,0.00024390267208218575,-0.9487309455871582,0.0021101858001202345,-0.0014759573386982083,0.08919811248779297,0,0,0
3565236345,d4:22:cd:00:30:92,0.3160123825073242,-0.0095780398696661,0.00023648864589631557,-0.9487124681472778,-0.00026356891612522304,-0.009630495682358742,0.07938289642333984,0,0,0
3565253012,d4:22:cd:00:30:92,0.31601619720458984,-0.009577717632055283,0.00024145562201738358,-0.9487111568450928,-0.0061088744550943375,0.005936664529144764,0.07476139068603516,0,0,0
3565269679,d4:22:cd:00:30:92,0.3160012662410736,-0.0095756184309721,0.00024842284619808197,-0.9487161040306091,-0.004528999328613281,-0.007403147406876087,0.07627582550048828,0,0,0
3565286346,d4:22:cd:00:30:92,0.31602251529693604,-0.009577843360602856,0.0002554832026362419,-0.9487090706825256,-0.0013573644682765007,0.0030692170839756727,0.07861709594726562,0,0,0
3565303013,d4:22:cd:00:30:92,0.3160017728805542,-0.009576922282576561,0.00025803479366004467,-0.9487159848213196,0.01031000167131424,0.0071467082016170025,0.09033203125,0,0,0
3565319680,d4:22:cd:00:30:92,0.3159908056259155,-0.009576164186000824,0.00025885715149343014,-0.9487197399139404,0.01347416639328003,-0.009779610671103,0.0720367431640625,0,0,0
3565336347,d4:22:cd:00:30:92,0.3159913122653961,-0.009575742296874523,0.0002483930438756943,-0.9487196207046509,-0.002879768842831254,-0.010418703779578209,0.08467960357666016,0,0,0
3565353014,d4:22:cd:00:30:92,0.3160099387168884,-0.00957624800503254,0.00025673373602330685,-0.9487131834030151,-0.0038518074434250593,0.00608564680442214,0.08152389526367188,0,0,0
3565369681,d4:22:cd:00:30:92,0.3159789443016052,-0.009573686867952347,0.00025730463676154613,-0.9487236738204956,-0.010447047650814056,-0.001194917713291943,0.07918453216552734,0,0,0
3565386348,d4:22:cd:00:30:92,0.3160039186477661,-0.009563485160470009,0.0002491020131856203,-0.9487155079841614,-0.00516405887901783,-0.001001086551696062,0.09004974365234375,0,0,0
3565403015,d4:22:cd:00:30:92,0.3159753680229187,-0.009567526169121265,0.0002513676881790161,-0.9487249851226807,0.0004883636138401926,-0.01506309024989605,0.08878707885742188,0,0,0
3565419682,d4:22:cd:00:30:92,0.3159962296485901,-0.009568121284246445,0.0002515970263630152,-0.9487180113792419,-0.010566086508333683,-0.0077650286257267,0.07796382904052734,0,0,0
3565436349,d4:22:cd:00:30:92,0.31597328186035156,-0.009570112451910973,0.00024380791001021862,-0.9487256407737732,-0.005332741420716047,-0.002687519881874323,0.08431434631347656,0,0,0
3565453016,d4:22:cd:00:30:92,0.3159986138343811,-0.009572694078087807,0.000249974662438035,-0.9487171173095703,0.002241710899397731,-0.01309989858418703,0.08121013641357422,0,0,0
3565469683,d4:22:cd:00:30:92,0.3159971237182617,-0.009578232653439045,0.00025096419267356396,-0.9487175345420837,0.005467409733682871,0.008317402563989162,0.08077526092529297,0,0,0
3565486350,d4:22:cd:00:30:92,0.3160164952278137,-0.009579014033079147,0.00026130303740501404,-0.9487110376358032,-0.004720394499599934,0.0042297872714698315,0.0722360610961914,0,0,0
3565503017,d4:22:cd:00:30:92,0.31597089767456055,-0.009585841558873653,0.00027352781035006046,-0.948726236820221,-0.0032563828863203526,-0.0012093308614566922,0.0902261734008789,0,0,0
3565519684,d4:22:cd:00:30:92,0.31597355008125305,-0.009587586857378483,0.00026801577769219875,-0.9487254023551941,0.0017862701788544655,0.0003041312738787383,0.07654857635498047,0,0,0
3565536351,d4:22:cd:00:30:92,0.31595659255981445,-0.00958908163011074,0.0002616483252495527,-0.9487309455871582,-0.0022700184490531683,0.004873675759881735,0.06783390045166016,0,0,0
3565553018,d4:22:cd:00:30:92,0.31599754095077515,-0.00959410797804594,0.0002644204068928957,-0.9487171769142151,0.011892960406839848,-0.003396635642275214,0.08530139923095703,0,0,0
3565569685,d4:22:cd:00:30:92,0.315984308719635,-0.009607325308024883,0.0002607738133519888,-0.9487214684486389,-0.0023537538945674896,0.002749195322394371,0.08472442626953125,0,0,0
3565586352,d4:22:cd:00:30:92,0.31598758697509766,-0.009607180953025818,0.00026245880872011185,-0.9487203359603882,0.0022690529003739357,-0.009223461151123047,0.08533763885498047,0,0,0
3565603019,d4:22:cd:00:30:92,0.31600016355514526,-0.009601285681128502,0.0002547444310039282,-0.9487162828445435,-0.000691444322001189,-0.00018176842422690243,0.08995914459228516,0,0,0
3565619686,d4:22:cd:00:30:92,0.31601738929748535,-0.009599526412785053,0.00025900453329086304,-0.948710560798645,0.0006944792112335563,-0.0002578152052592486,0.08919429779052734,0,0,0
3565636353,d4:22:cd:00:30:92,0.31604334712028503,-0.009596285410225391,0.0002574608661234379,-0.9487019777297974,0.0075805154629051685,0.008742021396756172,0.07038593292236328,0,0,0
3565653020,d4:22:cd:00:30:92,0.3160209059715271,-0.009600108489394188,0.0002470130566507578,-0.9487094283103943,0.003561871126294136,-0.011893047951161861,0.08837890625,0,0,0
3565669687,d4:22:cd:00:30:92,0.31602203845977783,-0.0096109164878726,0.00025627342984080315,-0.9487090110778809,0.010156551375985146,-0.004764423239976168,0.08366775512695312,0,0,0
3565686354,d4:22:cd:00:30:92,0.31604549288749695,-0.00961535144597292,0.0002575560938566923,-0.948701024055481,-0.008870616555213928,0.004876301623880863,0.07832717895507812,0,0,0
3565703021,d4:22:cd:00:30:92,0.31606191396713257,-0.009613575413823128,0.00025262567214667797,-0.9486956000328064,0.004394547548145056,-0.008577547036111355,0.06785869598388672,0,0,0
3565719688,d4:22:cd:00:30:92,0.3160827159881592,-0.00961981900036335,0.00023882044479250908,-0.9486886262893677,0.018276231363415718,0.01016560010612011,0.09398937225341797,0,0,0
3565736355,d4:22:cd:00:30:92,0.31603899598121643,-0.009627561084926128,0.0002348951529711485,-0.9487031698226929,-0.012205036357045174,0.001161694643087685,0.07526302337646484,0,0,0
3565753022,d4:22:cd:00:30:92,0.3160475790500641,-0.00962772499769926,0.00022701709531247616,-0.9487003087997437,0.007724524009972811,-0.007835865020751953,0.08821392059326172,0,0,0
3565769689,d4:22:cd:00:30:92,0.3160606622695923,-0.009632036089897156,0.00023048394359648228,-0.9486958980560303,-0.0010183302219957113,-0.010278826579451561,0.0667123794555664,0,0,0
3565786356,d4:22:cd:00:30:92,0.316078245639801,-0.009627875871956348,0.00023313495330512524,-0.9486899375915527,0.017492230981588364,0.008947838097810745,0.0877532958984375,0,0,0
3565803023,d4:22:cd:00:30:92,0.3160800337791443,-0.009630587883293629,0.00023126741871237755,-0.948689341545105,0.0008610976510681212,-0.008457241579890251,0.08891963958740234,0,0,0
3565819690,d4:22:cd:00:30:92,0.3160909116268158,-0.009627072140574455,0.00023655593395233154,-0.9486857652664185,-0.007996228523552418,0.0015915973344817758,0.0846090316772461,0,0,0
3565836357,d4:22:cd:00:30:92,0.3161017596721649,-0.009643582627177238,0.00024235271848738194,-0.9486818909645081,-0.002314796205610037,-0.0002763632801361382,0.09300041198730469,0,0,0
3565853024,d4:22:cd:00:30:92,0.3161150813102722,-0.009640144184231758,0.00024905172176659107,-0.948677659034729,-0.00742990942671895,0.0013994390610605478,0.07399559020996094,0,0,0
3565869691,d4:22:cd:00:30:92,0.3161328434944153,-0.009632972069084644,0.0002381415106356144,-0.948671817779541,-0.003997571300715208,0.003461157437413931,0.07409095764160156,0,0,0
3565886358,d4:22:cd:00:30:92,0.31607672572135925,-0.009641717188060284,0.00023143808357417583,-0.9486904144287109,0.008811317384243011,-0.0026671485975384712,0.06336021423339844,0,0,0
3565903025,d4:22:cd:00:30:92,0.3160759210586548,-0.009633651003241539,0.000235716812312603,-0.94869065284729,0.005566743668168783,-0.0072643631137907505,0.0715646743774414,0,0,0
3565919692,d4:22:cd:00:30:92,0.31608307361602783,-0.009644540026783943,0.00023399898782372475,-0.9486883282661438,0.0031954809091985226,-0.0029828327242285013,0.07889842987060547,0,0,0
3565936359,d4:22:cd:00:30:92,0.3160868287086487,-0.009642667137086391,0.00023505534045398235,-0.948686957359314,-0.008654491044580936,-0.011951367370784283,0.0872030258178711,0,0,0
3565953026,d4:22:cd:00:30:92,0.31607985496520996,-0.009640383534133434,0.0002369049470871687,-0.948689341545105,-0.0013908459804952145,-0.002640061778947711,0.07803916931152344,0,0,0
3565969693,d4:22:cd:00:30:92,0.3159945607185364,-0.00955995824187994,0.0003543207421898842,-0.9487186074256897,0.005842422600835562,-0.012507816776633263,0.07928657531738281,0,0,0
3565986360,d4:22:cd:00:30:92,0.31598949432373047,-0.00955301895737648,0.00034530716948211193,-0.9487203359603882,0.0014778816839680076,-0.0009355937945656478,0.08791542053222656,0,0,0
3566003027,d4:22:cd:00:30:92,0.31598013639450073,-0.009556843899190426,0.0003443846944719553,-0.9487234354019165,0.007596648298203945,-0.0014122561551630497,0.07422351837158203,0,0,0
3566019694,d4:22:cd:00:30:92,0.315963476896286,-0.009548746980726719,0.000349818030372262,-0.9487290382385254,0.0029936241917312145,-0.013104574754834175,0.07001686096191406,0,0,0
3566036361,d4:22:cd:00:30:92,0.3159545660018921,-0.009554841555655003,0.0003538932651281357,-0.9487318992614746,0.02333037555217743,-0.006698127835988998,0.08439826965332031,0,0,0
3566053028,d4:22:cd:00:30:92,0.3159641623497009,-0.009549688547849655,0.0003601855132728815,-0.9487286806106567,0.0037733421195298433,-0.0033152769319713116,0.08926963806152344,0,0,0
3566069695,d4:22:cd:00:30:92,0.3159632086753845,-0.00955077912658453,0.0003559812903404236,-0.9487290978431702,0.0040002427995204926,-0.009603946469724178,0.08898448944091797,0,0,0
3566086362,d4:22:cd:00:30:92,0.3159620761871338,-0.009551949799060822,0.00035248766653239727,-0.9487294554710388,0.006207010708749294,-0.006505442317575216,0.07258796691894531,0,0,0
3566103029,d4:22:cd:00:30:92,0.3159613013267517,-0.009551352821290493,0.0003639431670308113,-0.9487297534942627,-0.004137781914323568,0.0047635710798203945,0.0750722885131836,0,0,0
3566119696,d4:22:cd:00:30:92,0.31596067547798157,-0.009550330229103565,0.0003602956421673298,-0.948729932308197,-0.0016289554769173265,-0.010897762142121792,0.08110237121582031,0,0,0
3566136363,d4:22:cd:00:30:92,0.3159651756286621,-0.009549046866595745,0.0003608756233006716,-0.9487285017967224,0.00407049898058176,0.005909595172852278,0.08111095428466797,0,0,0
3566153030,d4:22:cd:00:30:92,0.31596583127975464,-0.00954106543213129,0.00036304653622210026,-0.9487283229827881,-0.0034871145617216825,-0.006330505013465881,0.07607555389404297,0,0,0
3566169697,d4:22:cd:00:30:92,0.3159627914428711,-0.009541360661387444,0.00037118210457265377,-0.9487292766571045,-0.0088139483705163,-0.006479979492723942,0.08409881591796875,0,0,0
3566186364,d4:22:cd:00:30:92,0.31596583127975464,-0.00954360980540514,0.00036605121567845345,-0.9487282633781433,0.005033930763602257,0.008103776723146439,0.07527446746826172,0,0,0
3566203031,d4:22:cd:00:30:92,0.3159570097923279,-0.00954358745366335,0.0003698272630572319,-0.9487311244010925,0.004052440170198679,-0.008696005679666996,0.0785980224609375,0,0,0
3566219698,d4:22:cd:00:30:92,0.3159557580947876,-0.009544319473206997,0.00037367758341133595,-0.948731541633606,-0.004837974440306425,-0.013550200499594212,0.07332134246826172,0,0,0
3566236365,d4:22:cd:00:30:92,0.3159554600715637,-0.009542878717184067,0.000376072246581316,-0.9487317800521851,0.007445225492119789,-0.0007726249168626964,0.09322071075439453,0,0,0
3566253032,d4:22:cd:00:30:92,0.31596291065216064,-0.009540606290102005,0.00038428534753620625,-0.9487292766571045,-0.0008267534431070089,-0.00020461912208702415,0.08243083953857422,0,0,0
3566269699,d4:22:cd:00:30:92,0.3159688413143158,-0.009543350897729397,0.0003922455944120884,-0.9487273097038269,0.0071481820195913315,0.0007158316439017653,0.06881999969482422,0,0,0
3566286366,d4:22:cd:00:30:92,0.3159727454185486,-0.009534407407045364,0.00039202580228447914,-0.9487259984016418,-0.00501638138666749,-0.002666785381734371,0.07522773742675781,0,0,0
3566303033,d4:22:cd:00:30:92,0.315987229347229,-0.009532636031508446,0.0003955201245844364,-0.9487212300300598,0.009312177076935768,0.00474088080227375,0.08286666870117188,0,0,0
3566319700,d4:22:cd:00:30:92,0.3160090446472168,-0.009530249983072281,0.0003942751791328192,-0.9487138986587524,-0.0008695457363501191,-0.013332952745258808,0.06296253204345703,0,0,0
3566336367,d4:22:cd:00:30:92,0.3160214424133301,-0.009537030011415482,0.0003873957321047783,-0.9487097859382629,0.011206111870706081,-0.006420091725885868,0.08292388916015625,0,0,0
3566353034,d4:22:cd:00:30:92,0.31602728366851807,-0.00953229982405901,0.0003831207286566496,-0.9487079381942749,0.01477980986237526,-0.003314124420285225,0.08725357055664062,0,0,0
3566369701,d4:22:cd:00:30:92,0.31602564454078674,-0.009527386166155338,0.0003750328905880451,-0.9487084150314331,0.008169827982783318,0.003569229505956173,0.08589363098144531,0,0,0
3566386368,d4:22:cd:00:30:92,0.31602245569229126,-0.009524856694042683,0.00037258840166032314,-0.9487094879150391,-0.001377690234221518,-0.001193374046124518,0.06467819213867188,0,0,0
3566403035,d4:22:cd:00:30:92,0.31601858139038086,-0.009513987228274345,0.0003671739250421524,-0.9487109780311584,0.008783173747360706,0.0010661253472790122,0.0808420181274414,0,0,0
3566419702,d4:22:cd:00:30:92,0.31601768732070923,-0.009512233547866344,0.0003686568234115839,-0.9487112164497375,0.008201813325285912,-0.012998155318200588,0.07929706573486328,0,0,0
3566436369,d4:22:cd:00:30:92,0.3160155117511749,-0.009509360417723656,0.00037509575486183167,-0.9487119913101196,0.005134598817676306,-0.01677892915904522,0.08138275146484375,0,0,0
3566453036,d4:22:cd:00:30:92,0.31601232290267944,-0.009515910409390926,0.00037036696448922157,-0.9487130045890808,0.0007743833120912313,0.004500458016991615,0.09097766876220703,0,0,0
3566469703,d4:22:cd:00:30:92,0.3160017728805542,-0.009507046081125736,0.0003671159502118826,-0.9487166404724121,-0.0012476894771680236,-0.004336189944297075,0.08597373962402344,0,0,0
3566486370,d4:22:cd:00:30:92,0.3160032033920288,-0.009503882378339767,0.000364106148481369,-0.9487161636352539,0.005956023000180721,-0.02062760293483734,0.07924175262451172,0,0,0
3566503037,d4:22:cd:00:30:92,0.3160039186477661,-0.00950861256569624,0.0003757940139621496,-0.9487159252166748,0.005170308519154787,-0.00917786080390215,0.08190441131591797,0,0,0
3566519704,d4:22:cd:00:30:92,0.3159981369972229,-0.009500548243522644,0.0003717367071658373,-0.9487178921699524,0.004974722396582365,-0.011144391261041164,0.0791330337524414,0,0,0
3566536371,d4:22:cd:00:30:92,0.3160041272640228,-0.00950264185667038,0.0003768173046410084,-0.9487158060073853,0.012041349895298481,-0.016329951584339142,0.07926654815673828,0,0,0
3566553038,d4:22:cd:00:30:92,0.31601327657699585,-0.009503566659986973,0.0003758363891392946,-0.9487128257751465,0.008420835249125957,-0.00808386318385601,0.0814199447631836,0,0,0
3566569705,d4:22:cd:00:30:92,0.31602492928504944,-0.00949470978230238,0.00038737035356462,-0.9487090110778809,-0.0002565754111856222,-0.010071752592921257,0.08182907104492188,0,0,0
3566586372,d4:22:cd:00:30:92,0.3160223960876465,-0.009499693289399147,0.0003853212110698223,-0.9487098455429077,-0.0030556211713701487,-0.01356807816773653,0.08659076690673828,0,0,0
3566603039,d4:22:cd:00:30:92,0.3160195052623749,-0.00949396938085556,0.0003802438732236624,-0.9487108588218689,0.008342736400663853,-0.006138800643384457,0.08072757720947266,0,0,0
3566619706,d4:22:cd:00:30:92,0.316040962934494,-0.00948838610202074,0.0003734880592674017,-0.9487037658691406,0.011052817106246948,-0.008795681409537792,0.07942867279052734,0,0,0
3566636373,d4:22:cd:00:30:92,0.31604427099227905,-0.009481808170676231,0.0003739790990948677,-0.9487027525901794,0.004528180230408907,-0.00661496352404356,0.07778263092041016,0,0,0
3566653040,d4:22:cd:00:30:92,0.31604132056236267,-0.009483403526246548,0.00037148804403841496,-0.9487037658691406,-0.006267684046179056,-0.007772834040224552,0.08896541595458984,0,0,0
3566669707,d4:22:cd:00:30:92,0.3160366714000702,-0.009481389075517654,0.000374204246327281,-0.9487053155899048,-0.002834565006196499,-0.006991181522607803,0.0867166519165039,0,0,0
3566686374,d4:22:cd:00:30:92,0.3160460591316223,-0.009474053047597408,0.0003771618939936161,-0.9487021565437317,0.006481526419520378,-0.003311997512355447,0.08050346374511719,0,0,0
3566703041,d4:22:cd:00:30:92,0.31603163480758667,-0.009477478452026844,0.00037635001353919506,-0.9487069845199585,0.004905475303530693,-0.004719025455415249,0.08388233184814453,0,0,0
3566719708,d4:22:cd:00:30:92,0.31603533029556274,-0.009471575729548931,0.00037930766120553017,-0.948705792427063,0.000634694704785943,-0.0035868764389306307,0.08742141723632812,0,0,0
3566736375,d4:22:cd:00:30:92,0.3160400390625,-0.009464701637625694,0.00037786015309393406,-0.9487042427062988,0.0046956492587924,0.008807105012238026,0.0836191177368164,0,0,0
3566753042,d4:22:cd:00:30:92,0.31605011224746704,-0.009461852721869946,0.0003778983373194933,-0.9487009644508362,-0.014779109507799149,-0.0016377911670133471,0.07391548156738281,0,0,0
3566769709,d4:22:cd:00:30:92,0.31604886054992676,-0.009458831511437893,0.00038766837678849697,-0.9487015008926392,0.009455738589167595,-0.006544616539031267,0.08311176300048828,0,0,0
3566786376,d4:22:cd:00:30:92,0.3160412907600403,-0.009454279206693172,0.00038512423634529114,-0.9487041234970093,0.0035697114653885365,-0.008923366665840149,0.08612251281738281,0,0,0
3566803043,d4:22:cd:00:30:92,0.3160455524921417,-0.009455902501940727,0.00038159056566655636,-0.9487026929855347,-0.005343669094145298,-0.012122522108256817,0.0774068832397461,0,0,0
3566819710,d4:22:cd:00:30:92,0.3160480260848999,-0.009455195628106594,0.0003779730759561062,-0.9487018585205078,0.0003229552530683577,-0.01791413314640522,0.07480239868164062,0,0,0
3566836377,d4:22:cd:00:30:92,0.3160565495491028,-0.009448506869375706,0.00037038675509393215,-0.9486990571022034,0.013828999362885952,0.008513353765010834,0.08251380920410156,0,0,0
3566853044,d4:22:cd:00:30:92,0.31605949997901917,-0.009439694695174694,0.00037029129453003407,-0.9486980438232422,-0.006749574560672045,-0.008154992014169693,0.08533191680908203,0,0,0
3566869711,d4:22:cd:00:30:92,0.3160603940486908,-0.009442770853638649,0.0003814389929175377,-0.9486978054046631,0.0030745393596589565,-0.01178972888737917,0.08018875122070312,0,0,0
3566886378,d4:22:cd:00:30:92,0.3160631060600281,-0.009452047757804394,0.00038627791218459606,-0.9486967325210571,-0.0037380270659923553,-0.007203239481896162,0.0759592056274414,0,0,0
3566903045,d4:22:cd:00:30:92,0.31606799364089966,-0.009445244446396828,0.00038521643728017807,-0.948695182800293,-0.003615213790908456,-0.0018421378917992115,0.08906269073486328,0,0,0
3566919712,d4:22:cd:00:30:92,0.3160764276981354,-0.00944633036851883,0.0003921729512512684,-0.9486923813819885,0.005316294264048338,0.0076561882160604,0.08222389221191406,0,0,0
3566936379,d4:22:cd:00:30:92,0.31607985496520996,-0.009447218850255013,0.0003957867156714201,-0.9486912488937378,0.010195239447057247,-0.00619269534945488,0.08105278015136719,0,0,0
3566953046,d4:22:cd:00:30:92,0.3160731792449951,-0.009451550431549549,0.00039166235364973545,-0.9486933946609497,0.0008840426453389227,0.004734050016850233,0.09568977355957031,0,0,0
3566969713,d4:22:cd:00:30:92,0.316064715385437,-0.009447578340768814,0.00038734101690351963,-0.9486962556838989,0.005346967838704586,-0.008574732579290867,0.07614517211914062,0,0,0
3566986380,d4:22:cd:00:30:92,0.3160763382911682,-0.009449979290366173,0.0003974710125476122,-0.9486922025680542,-0.00027006302843801677,-0.009788603521883488,0.0805044174194336,0,0,0
3567003047,d4:22:cd:00:30:92,0.31607645750045776,-0.009444795548915863,0.00039713154546916485,-0.9486924409866333,-0.009827091358602047,-0.007131205406039953,0.07645988464355469,0,0,0
3567019714,d4:22:cd:00:30:92,0.3160724639892578,-0.009448179975152016,0.0003887331113219261,-0.9486936330795288,0.007991387508809566,-0.01131898257881403,0.08477592468261719,0,0,0
3567036381,d4:22:cd:00:30:92,0.3160784840583801,-0.009438189677894115,0.000382015947252512,-0.9486917853355408,0.002960083307698369,-0.017533937469124794,0.08023929595947266,0,0,0
3567053048,d4:22:cd:00:30:92,0.3160756528377533,-0.009439656510949135,0.00037646503187716007,-0.9486926794052124,0.0025948474649339914,-0.013136645779013634,0.08409881591796875,0,0,0
3567069715,d4:22:cd:00:30:92,0.31607720255851746,-0.00943278893828392,0.0003813058137893677,-0.948692262172699,0.0007979307556524873,-0.007278783246874809,0.08743858337402344,0,0,0
3567086382,d4:22:cd:00:30:92,0.3160681128501892,-0.00943533331155777,0.0003852788358926773,-0.9486953020095825,0.0015731522580608726,0.002184168668463826,0.08522701263427734,0,0,0
3567103049,d4:22:cd:00:30:92,0.3160693049430847,-0.00943034142255783,0.00038108951412141323,-0.9486950039863586,0.010305178351700306,-0.007876163348555565,0.0909585952758789,0,0,0
3567119716,d4:22:cd:00:30:92,0.3160738945007324,-0.009427301585674286,0.0003853864036500454,-0.9486934542655945,0.008325265720486641,-0.008166122250258923,0.0736989974975586,0,0,0
3567136383,d4:22:cd:00:30:92,0.31606924533843994,-0.009430802427232265,0.00039812829345464706,-0.9486950039863586,-0.011938042007386684,-0.005299701821058989,0.09619808197021484,0,0,0
3567153050,d4:22:cd:00:30:92,0.3160655200481415,-0.009434999898076057,0.0004046782851219177,-0.9486961364746094,0.004843077156692743,-0.0022559897042810917,0.07896995544433594,0,0,0
3567169717,d4:22:cd:00:30:92,0.31607484817504883,-0.009437665343284607,0.0004026861861348152,-0.9486931562423706,0.007882729172706604,-0.005184204783290625,0.09206104278564453,0,0,0
3567186384,d4:22:cd:00:30:92,0.31607794761657715,-0.00943685695528984,0.0004029294941574335,-0.9486919641494751,-0.00048476990195922554,-0.0038812081329524517,0.08010196685791016,0,0,0
3567203051,d4:22:cd:00:30:92,0.31607380509376526,-0.009437629021704197,0.0004015264566987753,-0.9486932754516602,0.006917982827872038,-0.02269543521106243,0.0919952392578125,0,0,0
3567219718,d4:22:cd:00:30:92,0.31608039140701294,-0.009430008009076118,0.000405461760237813,-0.9486911296844482,0.002974353265017271,-0.008427510969340801,0.08552265167236328,0,0,0
3567236385,d4:22:cd:00:30:92,0.31608766317367554,-0.009438280016183853,0.00040933117270469666,-0.9486886262893677,0.006429819855839014,0.008185666054487228,0.0899343490600586,0,0,0
3567253052,d4:22:cd:00:30:92,0.3160839378833771,-0.009448448196053505,0.00041246158070862293,-0.9486899375915527,0.008075489662587643,-0.008087065070867538,0.07358551025390625,0,0,0
3567269719,d4:22:cd:00:30:92,0.316087007522583,-0.009448000229895115,0.00042343419045209885,-0.9486887454986572,-0.0071329898200929165,-0.004997215233743191,0.08374404907226562,0,0,0
3567286386,d4:22:cd:00:30:92,0.31608256697654724,-0.009443451650440693,0.0004379930905997753,-0.9486902952194214,-0.011294017545878887,-0.0054765669628977776,0.0996713638305664,0,0,0
3567303053,d4:22:cd:00:30:92,0.31608110666275024,-0.00944850780069828,0.0004464513622224331,-0.94869065284729,-0.004634893964976072,-0.009004736319184303,0.0876007080078125,0,0,0
3567319720,d4:22:cd:00:30:92,0.316078245639801,-0.0094432532787323,0.00045482791028916836,-0.9486918449401855,-0.0038819110486656427,-0.01640789397060871,0.08460426330566406,0,0,0
3567336387,d4:22:cd:00:30:92,0.3160756230354309,-0.009442387148737907,0.000460650771856308,-0.9486926198005676,0.012325529009103775,-0.01145359966903925,0.07449150085449219,0,0,0
3567353054,d4:22:cd:00:30:92,0.3160572946071625,-0.009439783170819283,0.0004586665891110897,-0.9486987590789795,0.009099816903471947,-0.010960687883198261,0.08276557922363281,0,0,0
3567369721,d4:22:cd:00:30:92,0.3160657286643982,-0.009438593871891499,0.0004628589376807213,-0.9486958980560303,0.003474275814369321,-0.007177999708801508,0.07363224029541016,0,0,0
3567386388,d4:22:cd:00:30:92,0.3160543441772461,-0.009432843886315823,0.00047301012091338634,-0.9486997127532959,0.0042836666107177734,-0.006082150619477034,0.09094619750976562,0,0,0
3567403055,d4:22:cd:00:30:92,0.31606513261795044,-0.009435437619686127,0.00046168616972863674,-0.9486962556838989,0.0032796221785247326,-0.017697514966130257,0.08680343627929688,0,0,0
3567419722,d4:22:cd:00:30:92,0.3160785436630249,-0.00943783763796091,0.00045685889199376106,-0.9486917853355408,-0.009751495905220509,-0.014703398570418358,0.0918893814086914,0,0,0
3567436389,d4:22:cd:00:30:92,0.31604474782943726,-0.009429700672626495,0.0004697644617408514,-0.9487031102180481,0.001301419921219349,-0.012065938673913479,0.08710098266601562,0,0,0
3567453056,d4:22:cd:00:30:92,0.31605058908462524,-0.009426572360098362,0.00047720735892653465,-0.9487011432647705,0.010276765562593937,-0.01108111534267664,0.08604049682617188,0,0,0
3567469723,d4:22:cd:00:30:92,0.31604915857315063,-0.00943041406571865,0.0004791391547769308,-0.9487016201019287,0.01384247001260519,0.0015802785055711865,0.08092689514160156,0,0,0
3567486390,d4:22:cd:00:30:92,0.31605225801467896,-0.009435107000172138,0.0004723265301436186,-0.9487006068229675,0.014086917974054813,-0.001212501898407936,0.08227348327636719,0,0,0
3567503057,d4:22:cd:00:30:92,0.3160557746887207,-0.009443962946534157,0.0004740238655358553,-0.9486991763114929,0.009244067594408989,0.007887552492320538,0.06875991821289062,0,0,0
3567519724,d4:22:cd:00:30:92,0.3160538971424103,-0.009444859810173512,0.0004748562350869179,-0.9486998915672302,0.0101737380027771,-0.012442107312381268,0.08618736267089844,0,0,0
3567536391,d4:22:cd:00:30:92,0.31605634093284607,-0.009444046765565872,0.0004732436500489712,-0.9486990571022034,-0.004251394420862198,-0.013850580900907516,0.07825469970703125,0,0,0
3567553058,d4:22:cd:00:30:92,0.3160703778266907,-0.00944974459707737,0.0004818369634449482,-0.9486943483352661,0.0032674327958375216,-0.014405790716409683,0.0901937484741211,0,0,0
3567569725,d4:22:cd:00:30:92,0.3160657286643982,-0.009446375072002411,0.00048507004976272583,-0.9486958980560303,0.001188365975394845,-0.007580382749438286,0.08925724029541016,0,0,0
3567586392,d4:22:cd:00:30:92,0.31605473160743713,-0.009443363174796104,0.0004898812621831894,-0.9486995935440063,0.007724466267973185,-0.010856558568775654,0.08249855041503906,0,0,0
3567603059,d4:22:cd:00:30:92,0.316060870885849,-0.00945216417312622,0.0004901271313428879,-0.9486974477767944,-0.0012678973143920302,-0.012661698274314404,0.07993316650390625,0,0,0
3567619726,d4:22:cd:00:30:92,0.3160710036754608,-0.00945613905787468,0.0004879238549619913,-0.9486940503120422,0.01807628944516182,-0.009280960075557232,0.08003616333007812,0,0,0
3567636393,d4:22:cd:00:30:92,0.31606727838516235,-0.009461169131100178,0.0004888291005045176,-0.948695182800293,0.007748795207589865,0.0001360181049676612,0.0897216796875,0,0,0
3567653060,d4:22:cd:00:30:92,0.31607338786125183,-0.009466991759836674,0.00048803724348545074,-0.9486931562423706,0.01466893870383501,0.006461005192250013,0.09122753143310547,0,0,0
3567669727,d4:22:cd:00:30:92,0.3160676956176758,-0.009458708576858044,0.0004907187540084124,-0.9486950635910034,0.004825757350772619,-0.015849994495511055,0.08650779724121094,0,0,0
3567686394,d4:22:cd:00:30:92,0.31607258319854736,-0.00946178287267685,0.0004901385400444269,-0.9486935138702393,0.01976410672068596,0.00018567290680948645,0.08625411987304688,0,0,0
3567703061,d4:22:cd:00:30:92,0.31606626510620117,-0.009469768032431602,0.0005075789522379637,-0.9486955404281616,0.0014355172170326114,-0.007697538007050753,0.08874893188476562,0,0,0
3567719728,d4:22:cd:00:30:92,0.31606531143188477,-0.009473731741309166,0.0005168344359844923,-0.9486957788467407,-0.006945937406271696,0.0016217436641454697,0.0708303451538086,0,0,0
3567736395,d4:22:cd:00:30:92,0.31607386469841003,-0.009473936632275581,0.0005122707225382328,-0.9486929774284363,0.01427127793431282,0.0008745712693780661,0.06550407409667969,0,0,0
3567753062,d4:22:cd:00:30:92,0.3160800635814667,-0.00947028398513794,0.0005171450320631266,-0.9486908912658691,0.008657884784042835,-0.0010465610539540648,0.07971477508544922,0,0,0
3567769729,d4:22:cd:00:30:92,0.3160863220691681,-0.00946547370404005,0.0005200207233428955,-0.9486888647079468,-0.004273175727576017,-0.0003926563949789852,0.08711051940917969,0,0,0
3567786396,d4:22:cd:00:30:92,0.3160790205001831,-0.009460496716201305,0.0005217629950493574,-0.9486912488937378,0.000383872160455212,-0.0115120280534029,0.0914926528930664,0,0,0
3567803063,d4:22:cd:00:30:92,0.3160836696624756,-0.00945857260376215,0.000531116733327508,-0.9486898183822632,0.009312706999480724,-0.006910734344273806,0.08704662322998047,0,0,0
3567819730,d4:22:cd:00:30:92,0.31607669591903687,-0.009454086422920227,0.0005241283215582371,-0.9486921429634094,-0.011348621919751167,0.004476957488805056,0.0825967788696289,0,0,0
3567836397,d4:22:cd:00:30:92,0.31608641147613525,-0.009466610848903656,0.0005210405215620995,-0.9486887454986572,0.0026735039427876472,-0.006293304264545441,0.08214282989501953,0,0,0
3567853064,d4:22:cd:00:30:92,0.316093385219574,-0.009466907009482384,0.000517657957971096,-0.9486864805221558,0.007183747366070747,-0.012508651241660118,0.07521247863769531,0,0,0
3567869731,d4:22:cd:00:30:92,0.3160908818244934,-0.009454785846173763,0.0005165105685591698,-0.9486873745918274,-0.007142867427319288,-0.007001948542892933,0.0837697982788086,0,0,0
3567886398,d4:22:cd:00:30:92,0.31608545780181885,-0.009451705031096935,0.0005136372055858374,-0.9486892223358154,-0.004240219946950674,0.00915818102657795,0.0741434097290039,0,0,0
3567903065,d4:22:cd:00:30:92,0.31608426570892334,-0.009443900547921658,0.0005192013923078775,-0.9486896991729736,0.008892727084457874,-0.01687788963317871,0.07615089416503906,0,0,0
3567919732,d4:22:cd:00:30:92,0.3160814046859741,-0.009452161379158497,0.000525160226970911,-0.9486905336380005,0.008305346593260765,-0.010126624256372452,0.08758068084716797,0,0,0
3567936399,d4:22:cd:00:30:92,0.3160827159881592,-0.00944998487830162,0.0005268969107419252,-0.9486901760101318,0.01699770987033844,0.0017965203151106834,0.08147811889648438,0,0,0
3567953066,d4:22:cd:00:30:92,0.31608396768569946,-0.009446464478969574,0.0005365076940506697,-0.9486898183822632,-0.00450767669826746,-0.0018109612865373492,0.07056903839111328,0,0,0
3567969733,d4:22:cd:00:30:92,0.31597235798835754,-0.009691989980638027,0.00025415699928998947,-0.9487245678901672,-0.001616749563254416,-0.000878067163284868,0.074737548828125,0,0,0
3567986400,d4:22:cd:00:30:92,0.3159700632095337,-0.009686857461929321,0.00026331236585974693,-0.9487253427505493,0.006548020057380199,0.0036680884659290314,0.0709390640258789,0,0,0
3568003067,d4:22:cd:00:30:92,0.3159797191619873,-0.009687796235084534,0.0002565765753388405,-0.948722243309021,0.0008348680566996336,0.0037701083347201347,0.0810537338256836,0,0,0
3568019734,d4:22:cd:00:30:92,0.31599152088165283,-0.009686371311545372,0.00025199935771524906,-0.9487183094024658,-0.003169013885781169,-0.005048763006925583,0.09010505676269531,0,0,0
3568036401,d4:22:cd:00:30:92,0.31599563360214233,-0.009683477692306042,0.00024989363737404346,-0.9487169981002808,-0.002520814072340727,0.002292125253006816,0.08280467987060547,0,0,0
3568053068,d4:22:cd:00:30:92,0.3159976005554199,-0.009690328501164913,0.00024934508837759495,-0.9487162232398987,0.00033905691816471517,0.014824839308857918,0.09069633483886719,0,0,0
3568069735,d4:22:cd:00:30:92,0.31599950790405273,-0.009698009118437767,0.0002485150471329689,-0.9487155675888062,0.008411452174186707,0.007879749871790409,0.06989383697509766,0,0,0
3568086402,d4:22:cd:00:30:92,0.31599950790405273,-0.009690024890005589,0.00024215434677898884,-0.9487156867980957,-0.0016865659272298217,-0.019811902195215225,0.07865619659423828,0,0,0
3568103069,d4:22:cd:00:30:92,0.31599509716033936,-0.009691973216831684,0.00025051413103938103,-0.9487169981002808,-0.0032834087032824755,-0.011737209744751453,0.0855417251586914,0,0,0
3568119736,d4:22:cd:00:30:92,0.3160015940666199,-0.009691881015896797,0.0002505979500710964,-0.9487147927284241,-0.0032347929663956165,-0.00922410748898983,0.08877277374267578,0,0,0
3568136403,d4:22:cd:00:30:92,0.31600314378738403,-0.009687405079603195,0.00025035301223397255,-0.9487143754959106,0.0018128559459000826,-0.0125045757740736,0.0709371566772461,0,0,0
3568153070,d4:22:cd:00:30:92,0.3160048723220825,-0.009692762047052383,0.00025675632059574127,-0.9487137794494629,-0.0027366646099835634,0.00944235734641552,0.0848855972290039,0,0,0
3568169737,d4:22:cd:00:30:92,0.3160117268562317,-0.009690606966614723,0.0002567814663052559,-0.9487115144729614,-0.0002960795827675611,-0.005633591674268246,0.08070755004882812,0,0,0
3568186404,d4:22:cd:00:30:92,0.31601232290267944,-0.009688381105661392,0.0002566638868302107,-0.9487112760543823,0.010616128332912922,-0.0023606426548212767,0.07207202911376953,0,0,0
3568203071,d4:22:cd:00:30:92,0.31601482629776,-0.009690212085843086,0.00026571331545710564,-0.948710560798645,0.016546953469514847,-0.0032855740282684565,0.09109973907470703,0,0,0
3568219738,d4:22:cd:00:30:92,0.3160209357738495,-0.00968958530575037,0.00025919429026544094,-0.9487085342407227,0.006180704105645418,-0.005105867050588131,0.07869434356689453,0,0,0
3568236405,d4:22:cd:00:30:92,0.31602388620376587,-0.009691606275737286,0.0002588664647191763,-0.9487075805664062,-0.004561277572065592,-0.007972571067512035,0.07811737060546875,0,0,0
3568253072,d4:22:cd:00:30:92,0.31602704524993896,-0.009699591435492039,0.00025864061899483204,-0.9487064480781555,-0.00011727445235010237,0.0029801679775118828,0.07370471954345703,0,0,0
3568269739,d4:22:cd:00:30:92,0.3160325884819031,-0.009708603844046593,0.00025724689476192,-0.9487043619155884,0.005288615357130766,0.00395834119990468,0.08449935913085938,0,0,0
3568286406,d4:22:cd:00:30:92,0.3160422444343567,-0.009719192050397396,0.0002596310805529356,-0.9487010836601257,0.008816597983241081,0.009148668497800827,0.0872955322265625,0,0,0
3568303073,d4:22:cd:00:30:92,0.3160390555858612,-0.009721706621348858,0.0002583330497145653,-0.9487022161483765,0.0028670495375990868,-0.0001594660134287551,0.07513046264648438,0,0,0
3568319740,d4:22:cd:00:30:92,0.3160431385040283,-0.009725973010063171,0.00026787398383021355,-0.9487007856369019,0.0118781803175807,-0.006228324491530657,0.07488441467285156,0,0,0
3568336407,d4:22:cd:00:30:92,0.3160493075847626,-0.009733354672789574,0.00026615639217197895,-0.9486986398696899,-0.010182440280914307,0.0017863819375634193,0.07641887664794922,0,0,0
3568353074,d4:22:cd:00:30:92,0.3160567283630371,-0.00973280519247055,0.0002600057050585747,-0.9486960768699646,0.00901174359023571,-0.0011067278683185577,0.07850456237792969,0,0,0
3568369741,d4:22:cd:00:30:92,0.31604892015457153,-0.009737000800669193,0.000255487859249115,-0.9486986398696899,0.001530381035991013,-0.0022249212488532066,0.08497238159179688,0,0,0
3568386408,d4:22:cd:00:30:92,0.3160424828529358,-0.009739669039845467,0.0002632676623761654,-0.9487007260322571,0.018909722566604614,0.008264940232038498,0.08448123931884766,0,0,0
3568403075,d4:22:cd:00:30:92,0.3160541355609894,-0.009734232909977436,0.00026385090313851833,-0.9486969709396362,0.012444200925529003,0.005522540770471096,0.08867073059082031,0,0,0
3568419742,d4:22:cd:00:30:92,0.3160644769668579,-0.009736968204379082,0.00026865280233323574,-0.9486934542655945,0.01837325282394886,-0.0010657691163942218,0.08092308044433594,0,0,0
3568436409,d4:22:cd:00:30:92,0.31607383489608765,-0.009735775180161,0.0002642064355313778,-0.9486904144287109,0.003085716860368848,-0.005763326771557331,0.07754993438720703,0,0,0
3568453076,d4:22:cd:00:30:92,0.31608232855796814,-0.009730260819196701,0.00027086143381893635,-0.9486875534057617,0.0032800736371427774,0.0039086793549358845,0.07850170135498047,0,0,0
3568469743,d4:22:cd:00:30:92,0.3160798251628876,-0.009735471569001675,0.0002648129593580961,-0.9486883878707886,0.011203248053789139,-0.004543508403003216,0.08637809753417969,0,0,0
3568486410,d4:22:cd:00:30:92,0.31607586145401,-0.0097455233335495,0.000265300739556551,-0.9486896395683289,0.004462364595383406,0.009607840329408646,0.0803842544555664,0,0,0
3568503077,d4:22:cd:00:30:92,0.3160759508609772,-0.009745595045387745,0.000265628332272172,-0.9486895799636841,0.015121172182261944,0.004491429775953293,0.08266735076904297,0,0,0
3568519744,d4:22:cd:00:30:92,0.3160761594772339,-0.009741888381540775,0.00026710028760135174,-0.9486895799636841,0.0028388607315719128,0.005874203518033028,0.0875844955444336,0,0,0
3568536411,d4:22:cd:00:30:92,0.31608086824417114,-0.00973809789866209,0.00026431120932102203,-0.9486880302429199,0.009583966806530952,-0.00362971774302423,0.08355140686035156,0,0,0
3568553078,d4:22:cd:00:30:92,0.3160909414291382,-0.009738225489854813,0.0002664388157427311,-0.9486846327781677,0.0005151938530616462,0.0034653134644031525,0.08616065979003906,0,0,0
3568569745,d4:22:cd:00:30:92,0.3160915672779083,-0.009728977456688881,0.00025290180929005146,-0.9486845135688782,0.01635058969259262,0.006345529109239578,0.0919036865234375,0,0,0
3568586412,d4:22:cd:00:30:92,0.31609654426574707,-0.009724238887429237,0.00025070225819945335,-0.9486829042434692,0.0022779114078730345,0.003233481664210558,0.07071495056152344,0,0,0
3568603079,d4:22:cd:00:30:92,0.31609487533569336,-0.009726676158607006,0.00024859304539859295,-0.948683500289917,0.008836816996335983,0.010278868488967419,0.09220409393310547,0,0,0
3568619746,d4:22:cd:00:30:92,0.31610599160194397,-0.009722195565700531,0.00024952320381999016,-0.9486798048019409,-0.006727830972522497,0.0034414080437272787,0.09002304077148438,0,0,0
3568636413,d4:22:cd:00:30:92,0.31610816717147827,-0.009719492867588997,0.0002442114055156708,-0.9486791491508484,-0.0002188995131291449,-0.00047501391964033246,0.08071041107177734,0,0,0
3568653080,d4:22:cd:00:30:92,0.31610602140426636,-0.009724731557071209,0.0002522985450923443,-0.9486798048019409,0.002774957101792097,-0.0011258592130616307,0.08667850494384766,0,0,0
3568669747,d4:22:cd:00:30:92,0.3161129355430603,-0.009721662849187851,0.00024939654394984245,-0.9486775398254395,-0.009732929058372974,-0.007018324453383684,0.08005237579345703,0,0,0
3568686414,d4:22:cd:00:30:92,0.31610673666000366,-0.009718014858663082,0.00024499441497027874,-0.9486796259880066,-0.002212982624769211,-0.0030030712950974703,0.08103752136230469,0,0,0
3568703081,d4:22:cd:00:30:92,0.3161049485206604,-0.009716836735606194,0.0002530731726437807,-0.9486802220344543,-0.00527561130002141,-0.004115540534257889,0.08359050750732422,0,0,0
3568719748,d4:22:cd:00:30:92,0.31610697507858276,-0.009710391983389854,0.00024774810299277306,-0.9486796259880066,0.0078403539955616,0.0008380828076042235,0.08286762237548828,0,0,0
3568736415,d4:22:cd:00:30:92,0.31610554456710815,-0.0097151268273592,0.00024105957709252834,-0.94868004322052,-0.0011253266129642725,-0.009152105078101158,0.07764816284179688,0,0,0
3568753082,d4:22:cd:00:30:92,0.31611713767051697,-0.009715793654322624,0.00024474714882671833,-0.9486761689186096,0.00795059185475111,-0.009236791171133518,0.08096122741699219,0,0,0
3568769749,d4:22:cd:00:30:92,0.31611913442611694,-0.009712406434118748,0.00023831473663449287,-0.9486754536628723,0.002676422707736492,0.00018239355995319784,0.0756683349609375,0,0,0
3568786416,d4:22:cd:00:30:92,0.31612756848335266,-0.00970156118273735,0.00023669376969337463,-0.9486727714538574,0.01421019434928894,0.005950917024165392,0.0780954360961914,0,0,0
3568803083,d4:22:cd:00:30:92,0.31612730026245117,-0.009710635989904404,0.00023493729531764984,-0.9486728310585022,-0.0035621067509055138,-0.0007916304748505354,0.07334136962890625,0,0,0
3568819750,d4:22:cd:00:30:92,0.3161320686340332,-0.009701612405478954,0.0002302844077348709,-0.948671281337738,0.0002794959582388401,0.0031825171317905188,0.07710456848144531,0,0,0
3568836417,d4:22:cd:00:30:92,0.31614556908607483,-0.00969824567437172,0.00023557222448289394,-0.9486668109893799,0.007854044437408447,-0.017220813781023026,0.08370304107666016,0,0,0
3568853084,d4:22:cd:00:30:92,0.3161519169807434,-0.009694049134850502,0.00023422203958034515,-0.9486647844314575,-0.007235592696815729,-0.004447618033736944,0.06937122344970703,0,0,0
3568869751,d4:22:cd:00:30:92,0.3161492943763733,-0.00968671590089798,0.0002327980473637581,-0.9486657381057739,0.0035216021351516247,0.003986535128206015,0.09294605255126953,0,0,0
3568886418,d4:22:cd:00:30:92,0.3161449432373047,-0.009686698205769062,0.00024066376499831676,-0.9486671686172485,0.007941164076328278,-0.004726230166852474,0.08217144012451172,0,0,0
3568903085,d4:22:cd:00:30:92,0.3161425292491913,-0.009688949212431908,0.0002457017544656992,-0.9486678838729858,0.0006313926423899829,-0.001103008515201509,0.08050060272216797,0,0,0
3568919752,d4:22:cd:00:30:92,0.31613844633102417,-0.009690356440842152,0.00024049589410424232,-0.9486693143844604,0.0005259085446596146,0.001124252681620419,0.07366180419921875,0,0,0
3568936419,d4:22:cd:00:30:92,0.31614410877227783,-0.009693889878690243,0.00023135426454246044,-0.9486673474311829,0.01673370972275734,-0.0041898759081959724,0.07843494415283203,0,0,0
3568953086,d4:22:cd:00:30:92,0.31614041328430176,-0.009689402766525745,0.00023224973119795322,-0.9486685991287231,-0.0064055235125124454,-0.011482118628919125,0.08684921264648438,0,0,0
3568969753,d4:22:cd:00:30:92,0.3161364197731018,-0.009693341329693794,0.0002307174727320671,-0.9486697912216187,-0.0023653660900890827,0.00411622179672122,0.09665870666503906,0,0,0
3568986420,d4:22:cd:00:30:92,0.31613367795944214,-0.009682424366474152,0.00024233246222138405,-0.9486710429191589,0.00497861672192812,-0.0005846609710715711,0.09486103057861328,0,0,0
3569003087,d4:22:cd:00:30:92,0.316135048866272,-0.009683334268629551,0.00025067967362701893,-0.948670506477356,0.011606276966631413,-0.005204722750931978,0.08158397674560547,0,0,0
3569019754,d4:22:cd:00:30:92,0.3161357045173645,-0.009682564996182919,0.00025332672521471977,-0.9486703276634216,0.008378274738788605,0.008895535953342915,0.08023548126220703,0,0,0
3569036421,d4:22:cd:00:30:92,0.31612372398376465,-0.00968107208609581,0.0002506701275706291,-0.9486743211746216,-0.007802290841937065,0.004863994661718607,0.062142372131347656,0,0,0
3569053088,d4:22:cd:00:30:92,0.3161245584487915,-0.009679658338427544,0.0002540396526455879,-0.9486740231513977,-0.0015679748030379415,0.0002623588079586625,0.09082698822021484,0,0,0
3569069755,d4:22:cd:00:30:92,0.31612861156463623,-0.00968154426664114,0.00024356553331017494,-0.9486726522445679,0.009179738350212574,-0.007018048316240311,0.0808095932006836,0,0,0
3569086422,d4:22:cd:00:30:92,0.3161335587501526,-0.009684611111879349,0.0002492619678378105,-0.9486709833145142,-0.0018058728892356157,-0.005697478074580431,0.08017349243164062,0,0,0
3569103089,d4:22:cd:00:30:92,0.3161345422267914,-0.009688454680144787,0.00025423476472496986,-0.9486706256866455,0.0014432946918532252,-0.004290041513741016,0.08397102355957031,0,0,0
3569119756,d4:22:cd:00:30:92,0.3161373734474182,-0.00969129428267479,0.00026148254983127117,-0.9486696720123291,0.0098877539858222,-0.0036462086718529463,0.06969165802001953,0,0,0
3569136423,d4:22:cd:00:30:92,0.31614241003990173,-0.00968532357364893,0.00026255473494529724,-0.9486680626869202,-0.002179137896746397,-0.0022233636118471622,0.08318710327148438,0,0,0
3569153090,d4:22:cd:00:30:92,0.3161408603191376,-0.009690813720226288,0.00026871636509895325,-0.9486684203147888,-0.0008820484508760273,-0.004758325405418873,0.08994197845458984,0,0,0
3569169757,d4:22:cd:00:30:92,0.3161337375640869,-0.009692694991827011,0.00027043232694268227,-0.9486708045005798,0.0027352815959602594,-0.007372354622930288,0.08751773834228516,0,0,0
3569186424,d4:22:cd:00:30:92,0.3161221742630005,-0.009696485474705696,0.0002729103434830904,-0.9486746191978455,0.0033286598045378923,0.007048963103443384,0.0731496810913086,0,0,0
3569203091,d4:22:cd:00:30:92,0.3161217272281647,-0.009691462852060795,0.0002751816064119339,-0.9486747980117798,0.00691230921074748,-0.006743521895259619,0.0815114974975586,0,0,0
3569219758,d4:22:cd:00:30:92,0.31611865758895874,-0.009688718244433403,0.00027780444361269474,-0.9486759901046753,-0.0031300929840654135,-0.004206520970910788,0.08779716491699219,0,0,0
3569236425,d4:22:cd:00:30:92,0.31613945960998535,-0.009677414782345295,0.00028176396153867245,-0.9486691951751709,0.010755885392427444,-0.007673217449337244,0.08455753326416016,0,0,0
3569253092,d4:22:cd:00:30:92,0.3161275386810303,-0.009681952185928822,0.0002824177499860525,-0.9486731290817261,0.0017612105002626777,-0.0026681788731366396,0.07672595977783203,0,0,0
3569269759,d4:22:cd:00:30:92,0.3161364793777466,-0.009676079265773296,0.0002688760869204998,-0.9486701488494873,0.0030173324048519135,-0.013438552618026733,0.09565162658691406,0,0,0
3569286426,d4:22:cd:00:30:92,0.31614673137664795,-0.009675674140453339,0.00027012103237211704,-0.9486666917800903,0.015347830019891262,-0.004540763329714537,0.08869171142578125,0,0,0
3569303093,d4:22:cd:00:30:92,0.3161579668521881,-0.009672453626990318,0.0002681175246834755,-0.9486629962921143,-0.0011434416519477963,0.0007675190572626889,0.07072830200195312,0,0,0
3569319760,d4:22:cd:00:30:92,0.3161589503288269,-0.009678281843662262,0.0002677415031939745,-0.9486626386642456,0.0014252146938815713,-0.004156792536377907,0.06356525421142578,0,0,0
3569336427,d4:22:cd:00:30:92,0.31615012884140015,-0.009669912979006767,0.00027573597617447376,-0.9486655592918396,0.016859084367752075,-0.0016172874020412564,0.0811004638671875,0,0,0
3569353094,d4:22:cd:00:30:92,0.31615686416625977,-0.00966751016676426,0.00027434597723186016,-0.9486633539199829,0.004135518800467253,-0.0024926618207246065,0.07830047607421875,0,0,0
