sep=,
Measurement Mode:,Extended (Quaternion)
StartTime:,Tue, 31 May 2022 12:28:06 GMT
© Xsens Technologies B. V. 2005-2022

Timestamp,Address,Quaternion_w,Quaternion_x,Quaternion_y,Quaternion_z,FreeAcc_x,FreeAcc_y,FreeAcc_z,Status,ClipCountAcc,ClipCountGyr
4197512481,d4:22:cd:00:30:92,0.3310535252094269,0.643234133720398,-0.30022314190864563,0.6217153072357178,0.008073958568274975,-0.007828988134860992,0.1542978286743164,0,0,0
4197529148,d4:22:cd:00:30:92,0.33108413219451904,0.6432414650917053,-0.30024296045303345,0.6216819286346436,0.005120499990880489,0.0009780926629900932,0.14134883880615234,0,0,0
4197545815,d4:22:cd:00:30:92,0.33109182119369507,0.643258273601532,-0.3002364933490753,0.6216635704040527,0.015023255720734596,-0.012618870474398136,0.14422607421875,0,0,0
4197562482,d4:22:cd:00:30:92,0.33106470108032227,0.6432880163192749,-0.3002399206161499,0.6216456294059753,0.005910688545554876,-0.004294019192457199,0.13735389709472656,0,0,0
4197579149,d4:22:cd:00:30:92,0.3309480547904968,0.6433340907096863,-0.30023813247680664,0.6216609477996826,0.006318166386336088,-0.012019185349345207,0.14645957946777344,0,0,0
4197595816,d4:22:cd:00:30:92,0.33085185289382935,0.6433746814727783,-0.30025023221969604,0.6216641664505005,0.006599359679967165,-0.003420977620407939,0.15269947052001953,0,0,0
4197612483,d4:22:cd:00:30:92,0.33086585998535156,0.6433786153793335,-0.30021727085113525,0.6216686964035034,-0.0011068640742450953,0.006461871322244406,0.13734817504882812,0,0,0
4197629150,d4:22:cd:00:30:92,0.330894410610199,0.6433980464935303,-0.30017900466918945,0.6216518878936768,0.01894308626651764,-0.00673947436735034,0.14015865325927734,0,0,0
4197645817,d4:22:cd:00:30:92,0.330852746963501,0.6434458494186401,-0.30014947056770325,0.6216387748718262,0.0036243742797523737,-0.005410242825746536,0.14654064178466797,0,0,0
4197662484,d4:22:cd:00:30:92,0.33084315061569214,0.6434785723686218,-0.3002516031265259,0.6215606927871704,0.009508101269602776,-0.021697742864489555,0.1260986328125,0,0,0
4197679151,d4:22:cd:00:30:92,0.3307691812515259,0.6435340046882629,-0.30032020807266235,0.6215095520019531,0.0026064126286655664,0.00020797881006728858,0.14386272430419922,0,0,0
4197695818,d4:22:cd:00:30:92,0.3306278586387634,0.6436681151390076,-0.3002662658691406,0.6214718818664551,0.017682179808616638,-0.010214989073574543,0.14362049102783203,0,0,0
4197712485,d4:22:cd:00:30:92,0.3305881917476654,0.6437291502952576,-0.3002893328666687,0.6214187145233154,-0.01022596936672926,0.0024889286141842604,0.150634765625,0,0,0
4197729152,d4:22:cd:00:30:92,0.3306120038032532,0.6437394022941589,-0.3003540635108948,0.6213639974594116,-0.00427975645288825,-0.013380379416048527,0.13972854614257812,0,0,0
4197745819,d4:22:cd:00:30:92,0.3306005299091339,0.6437435150146484,-0.30035051703453064,0.6213676333427429,0.0057597472332417965,-0.012093503959476948,0.1401844024658203,0,0,0
4197762486,d4:22:cd:00:30:92,0.33055803179740906,0.6437637209892273,-0.30032670497894287,0.6213807463645935,0.01645851694047451,-0.005867214873433113,0.14167499542236328,0,0,0
4197779153,d4:22:cd:00:30:92,0.3305469751358032,0.6437647342681885,-0.30030232667922974,0.6213974952697754,0.00038667742046527565,0.007300156634300947,0.13966751098632812,0,0,0
4197795820,d4:22:cd:00:30:92,0.330660879611969,0.6437066793441772,-0.3003367483615875,0.6213803291320801,0.0017542134737595916,0.008796575479209423,0.14095687866210938,0,0,0
4197812487,d4:22:cd:00:30:92,0.3307374119758606,0.6436378955841064,-0.30029988288879395,0.6214288473129272,-0.0036456079687923193,-0.023505963385105133,0.134063720703125,0,0,0
4197829154,d4:22:cd:00:30:92,0.3307780921459198,0.6435495018959045,-0.300226092338562,0.6215342283248901,-0.0029416121542453766,-0.01033725030720234,0.13488006591796875,0,0,0
4197845821,d4:22:cd:00:30:92,0.33085155487060547,0.6434904336929321,-0.3001924157142639,0.6215724945068359,0.017729997634887695,0.0032221628352999687,0.1437387466430664,0,0,0
4197862488,d4:22:cd:00:30:92,0.33090949058532715,0.6434656381607056,-0.3001784682273865,0.6215740442276001,0.012889168225228786,-0.02287990413606167,0.15189647674560547,0,0,0
4197879155,d4:22:cd:00:30:92,0.3309001326560974,0.6434626579284668,-0.3001822233200073,0.6215803623199463,-0.0020942045375704765,-0.013518622145056725,0.1500864028930664,0,0,0
4197895822,d4:22:cd:00:30:92,0.3308853507041931,0.6434550285339355,-0.30022960901260376,0.621573269367218,0.004253018647432327,0.001015195855870843,0.14011287689208984,0,0,0
4197912489,d4:22:cd:00:30:92,0.33082497119903564,0.6434809565544128,-0.3002338409423828,0.6215765476226807,0.007631933782249689,-0.00012986102956347167,0.1405191421508789,0,0,0
4197929156,d4:22:cd:00:30:92,0.33078837394714355,0.643509566783905,-0.30025920271873474,0.6215540766716003,0.015222196467220783,-0.004641470033675432,0.1281423568725586,0,0,0
4197945823,d4:22:cd:00:30:92,0.33076220750808716,0.6435848474502563,-0.30029943585395813,0.6214707493782043,-0.0044503663666546345,-0.007885648868978024,0.13708972930908203,0,0,0
4197962490,d4:22:cd:00:30:92,0.3307189643383026,0.6436268091201782,-0.3003652095794678,0.6214184165000916,0.005917058326303959,-0.005010266322642565,0.1463165283203125,0,0,0
4197979157,d4:22:cd:00:30:92,0.3306999206542969,0.6436275243759155,-0.30041033029556274,0.621405839920044,0.0016091815195977688,0.0039003011770546436,0.1472911834716797,0,0,0
4197995824,d4:22:cd:00:30:92,0.3306846618652344,0.6435897350311279,-0.3003845810890198,0.6214655637741089,-0.013884847983717918,0.000388800777727738,0.14479351043701172,0,0,0
4198012491,d4:22:cd:00:30:92,0.33072608709335327,0.6435443162918091,-0.30040252208709717,0.6214819550514221,0.014082671143114567,-0.017157189548015594,0.1425495147705078,0,0,0
4198029158,d4:22:cd:00:30:92,0.3304838538169861,0.64362633228302,-0.3001561164855957,0.6216450929641724,-0.11802159994840622,0.03320296108722687,0.15733814239501953,0,0,0
4198045825,d4:22:cd:00:30:92,0.33035027980804443,0.6435284614562988,-0.3000330924987793,0.6218767166137695,0.07568527013063431,-0.03261568024754524,0.13225364685058594,0,0,0
4198062492,d4:22:cd:00:30:92,0.33033278584480286,0.6434701681137085,-0.2999178171157837,0.6220018267631531,0.043874140828847885,-0.004590844269841909,0.1377410888671875,0,0,0
4198079159,d4:22:cd:00:30:92,0.3303188383579254,0.643474280834198,-0.2998903691768646,0.6220182180404663,0.008553785271942616,-0.010725827887654305,0.16908836364746094,0,0,0
4198095826,d4:22:cd:00:30:92,0.330342173576355,0.643477737903595,-0.29995137453079224,0.6219727993011475,0.01920662261545658,0.0066281650215387344,0.14208412170410156,0,0,0
4198112493,d4:22:cd:00:30:92,0.3304321765899658,0.6434696912765503,-0.3000088930130005,0.6219056844711304,0.002575148595497012,0.004793570376932621,0.14142704010009766,0,0,0
4198129160,d4:22:cd:00:30:92,0.3304201364517212,0.6434877514839172,-0.2999536991119385,0.6219200491905212,0.009766915813088417,-0.001479096943512559,0.14841938018798828,0,0,0
4198145827,d4:22:cd:00:30:92,0.3303711414337158,0.6435264348983765,-0.2999548316001892,0.6219053864479065,0.011238203383982182,-0.011384855955839157,0.14133071899414062,0,0,0
4198162494,d4:22:cd:00:30:92,0.3303183913230896,0.6435499787330627,-0.3000018894672394,0.6218863725662231,-0.002064156113192439,-0.005201034713536501,0.1350870132446289,0,0,0
4198179161,d4:22:cd:00:30:92,0.33026158809661865,0.6436165571212769,-0.29997676610946655,0.6218597888946533,0.012639797292649746,-0.00714839156717062,0.14040565490722656,0,0,0
4198195828,d4:22:cd:00:30:92,0.3302404582500458,0.643638551235199,-0.30000123381614685,0.6218364238739014,0.003823314793407917,-0.0032800526823848486,0.14529705047607422,0,0,0
4198212495,d4:22:cd:00:30:92,0.3301866352558136,0.6436530351638794,-0.29995059967041016,0.6218743324279785,0.01714974455535412,-0.010437943041324615,0.14413833618164062,0,0,0
4198229162,d4:22:cd:00:30:92,0.33023741841316223,0.6436231732368469,-0.299998939037323,0.6218550205230713,0.003616956528276205,0.01820703037083149,0.1409921646118164,0,0,0
4198245829,d4:22:cd:00:30:92,0.3302096128463745,0.6436321139335632,-0.29997602105140686,0.6218715310096741,0.005286556202918291,-0.018171267583966255,0.14118576049804688,0,0,0
4198262496,d4:22:cd:00:30:92,0.33018922805786133,0.6436411738395691,-0.2999403476715088,0.6218901872634888,0.006096693221479654,-0.0031884124036878347,0.14794921875,0,0,0
4198279163,d4:22:cd:00:30:92,0.3301718235015869,0.6436543464660645,-0.2998961806297302,0.6219071745872498,0.01574774459004402,-0.00030241304193623364,0.1409912109375,0,0,0
4198295830,d4:22:cd:00:30:92,0.33019331097602844,0.6436426639556885,-0.2999044358730316,0.6219040155410767,0.0009550987742841244,0.001407572883181274,0.13524723052978516,0,0,0
4198312497,d4:22:cd:00:30:92,0.3303874433040619,0.643544614315033,-0.3000199496746063,0.6218464374542236,0.003908319398760796,-0.004275244195014238,0.14088726043701172,0,0,0
4198329164,d4:22:cd:00:30:92,0.33050429821014404,0.6434919238090515,-0.29994654655456543,0.6218743324279785,-0.006699325982481241,0.004520661197602749,0.14046669006347656,0,0,0
4198345831,d4:22:cd:00:30:92,0.33063557744026184,0.6434744596481323,-0.2998497486114502,0.6218692064285278,0.03187331184744835,-0.020937912166118622,0.1477670669555664,0,0,0
4198362498,d4:22:cd:00:30:92,0.33062249422073364,0.6435247659683228,-0.29979801177978516,0.6218492388725281,0.0019923944491893053,-0.018919812515378,0.13805103302001953,0,0,0
4198379165,d4:22:cd:00:30:92,0.33058932423591614,0.64356929063797,-0.29982927441596985,0.6218056082725525,0.01551931444555521,-0.021670252084732056,0.15076255798339844,0,0,0
4198395832,d4:22:cd:00:30:92,0.33043503761291504,0.6436610221862793,-0.29985105991363525,0.6217821836471558,0.0042364224791526794,-0.008976727724075317,0.1477794647216797,0,0,0
4198412499,d4:22:cd:00:30:92,0.33025747537612915,0.6437881588935852,-0.2999158799648285,0.6217136383056641,0.012806691229343414,-0.00004392029586597346,0.1505756378173828,0,0,0
4198429166,d4:22:cd:00:30:92,0.33012905716896057,0.6439008116722107,-0.29996275901794434,0.621642529964447,0.004011149518191814,0.0008660009480081499,0.14491558074951172,0,0,0
4198445833,d4:22:cd:00:30:92,0.33002418279647827,0.6440051198005676,-0.3000616431236267,0.6215425729751587,0.00030031759524717927,-0.0029405364766716957,0.13881587982177734,0,0,0
4198462500,d4:22:cd:00:30:92,0.3299202024936676,0.644096314907074,-0.300150603055954,0.6214601993560791,-0.0003418211708776653,0.004546141717582941,0.16569995880126953,0,0,0
4198479167,d4:22:cd:00:30:92,0.32982927560806274,0.6441712379455566,-0.3001875877380371,0.621412992477417,-0.0014856347115710378,0.011790419928729534,0.13097858428955078,0,0,0
4198495834,d4:22:cd:00:30:92,0.3297879695892334,0.6441946029663086,-0.3002188801765442,0.6213955879211426,-0.007077160757035017,0.0036053757648915052,0.1491718292236328,0,0,0
4198512501,d4:22:cd:00:30:92,0.32979467511177063,0.6441720724105835,-0.30023717880249023,0.6214063763618469,-0.0004873420693911612,-0.0015669375425204635,0.14108657836914062,0,0,0
4198529168,d4:22:cd:00:30:92,0.3298457860946655,0.6441410779953003,-0.3002546429634094,0.6214030385017395,-0.00494543369859457,0.0002050731418421492,0.14178943634033203,0,0,0
4198545835,d4:22:cd:00:30:92,0.329967200756073,0.6440944671630859,-0.3002707362174988,0.6213791966438293,0.009872552938759327,0.0008318034815602005,0.15405941009521484,0,0,0
4198562502,d4:22:cd:00:30:92,0.33008337020874023,0.644047737121582,-0.3000844717025757,0.6214559078216553,-0.006935718934983015,0.017485307529568672,0.13512325286865234,0,0,0
4198579169,d4:22:cd:00:30:92,0.33032578229904175,0.6439312696456909,-0.29990077018737793,0.6215364933013916,-0.00919895526021719,0.001739042578265071,0.15195560455322266,0,0,0
4198595836,d4:22:cd:00:30:92,0.33064669370651245,0.6437702775001526,-0.2996647357940674,0.6216464638710022,0.01040192972868681,0.0035682725720107555,0.13565731048583984,0,0,0
4198612503,d4:22:cd:00:30:92,0.3308570384979248,0.6436856985092163,-0.2994990646839142,0.6217020153999329,0.0012035334948450327,-0.029559588059782982,0.13364887237548828,0,0,0
4198629170,d4:22:cd:00:30:92,0.3308802843093872,0.6436105370521545,-0.29945552349090576,0.6217882633209229,0.015500232577323914,-0.019265811890363693,0.14836597442626953,0,0,0
4198645837,d4:22:cd:00:30:92,0.3308606743812561,0.643593430519104,-0.29949676990509033,0.6217966675758362,0.018632613122463226,-0.008931131102144718,0.1348400115966797,0,0,0
4198662504,d4:22:cd:00:30:92,0.3307484984397888,0.6436439752578735,-0.2995070517063141,0.6217991709709167,0.010467056185007095,-0.00010527460108278319,0.1512584686279297,0,0,0
4198679171,d4:22:cd:00:30:92,0.3307120203971863,0.6436553001403809,-0.2994486391544342,0.6218348145484924,0.0011798550840467215,-0.007218127604573965,0.14563751220703125,0,0,0
4198695838,d4:22:cd:00:30:92,0.3307383060455322,0.6436640024185181,-0.29947322607040405,0.6217999458312988,0.0076027512550354,-0.0028767234180122614,0.14390182495117188,0,0,0
4198712505,d4:22:cd:00:30:92,0.3307715356349945,0.6436539888381958,-0.29948145151138306,0.6217886209487915,0.0006727600120939314,-0.012032372877001762,0.14651107788085938,0,0,0
4198729172,d4:22:cd:00:30:92,0.330864280462265,0.6436119675636292,-0.2994963526725769,0.6217755675315857,-0.006455095950514078,0.0025595587212592363,0.14184093475341797,0,0,0
4198745839,d4:22:cd:00:30:92,0.3308732509613037,0.6436061859130859,-0.2994976043701172,0.621776282787323,-0.0033816113136708736,-0.009796349331736565,0.1497516632080078,0,0,0
4198762506,d4:22:cd:00:30:92,0.33086490631103516,0.6436192989349365,-0.2995215058326721,0.6217556595802307,0.0023720453027635813,0.004939412698149681,0.14509105682373047,0,0,0
4198779173,d4:22:cd:00:30:92,0.33087554574012756,0.6436429619789124,-0.2995362877845764,0.6217183470726013,-0.0033304966054856777,-0.0014824497047811747,0.14696502685546875,0,0,0
4198795840,d4:22:cd:00:30:92,0.3308907747268677,0.6436719298362732,-0.2995215058326721,0.6216874122619629,-0.004181173164397478,0.013936479575932026,0.13238048553466797,0,0,0
4198812507,d4:22:cd:00:30:92,0.33087658882141113,0.6436781287193298,-0.2993961274623871,0.6217488646507263,-0.002966268453747034,0.01591881550848484,0.13428115844726562,0,0,0
4198829174,d4:22:cd:00:30:92,0.3309853672981262,0.643645167350769,-0.29931408166885376,0.6217647790908813,-0.0015635150484740734,-0.010979180224239826,0.14946746826171875,0,0,0
4198845841,d4:22:cd:00:30:92,0.33104208111763,0.6435856819152832,-0.2992357909679413,0.6218336820602417,-0.008064179681241512,-0.016400709748268127,0.1449136734008789,0,0,0
4198862508,d4:22:cd:00:30:92,0.33104264736175537,0.643592357635498,-0.29918909072875977,0.621849000453949,0.020479680970311165,-0.014101209118962288,0.14417266845703125,0,0,0
4198879175,d4:22:cd:00:30:92,0.33102184534072876,0.6436171531677246,-0.29920631647109985,0.621826171875,-0.007043996825814247,-0.014219447039067745,0.15000152587890625,0,0,0
4198895842,d4:22:cd:00:30:92,0.3310031294822693,0.6436402201652527,-0.2992090582847595,0.6218107342720032,-0.0016115144826471806,0.007121346425265074,0.14882946014404297,0,0,0
4198912509,d4:22:cd:00:30:92,0.330949068069458,0.6436958312988281,-0.29915910959243774,0.6218060255050659,0.009749132208526134,-0.013461961410939693,0.14551162719726562,0,0,0
4198929176,d4:22:cd:00:30:92,0.3309745788574219,0.6437171101570129,-0.2992022931575775,0.6217498183250427,0.004321567248553038,-0.003717914456501603,0.1276683807373047,0,0,0
4198945843,d4:22:cd:00:30:92,0.33096379041671753,0.6437356472015381,-0.299089252948761,0.6217906475067139,-0.0002887647715397179,0.028761982917785645,0.13561725616455078,0,0,0
4198962510,d4:22:cd:00:30:92,0.3309427499771118,0.6437307000160217,-0.29902082681655884,0.6218398213386536,0.001218983787111938,-0.015120092779397964,0.14696979522705078,0,0,0
4198979177,d4:22:cd:00:30:92,0.33095791935920715,0.6437534093856812,-0.2989862561225891,0.6218248605728149,0.01313066016882658,0.010727616026997566,0.1443805694580078,0,0,0
4198995844,d4:22:cd:00:30:92,0.3309369385242462,0.6438015103340149,-0.2989862561225891,0.6217862963676453,0.006270083133131266,-0.007280934602022171,0.14713668823242188,0,0,0
4199012511,d4:22:cd:00:30:92,0.3308386206626892,0.6438816785812378,-0.2990177869796753,0.621740460395813,-0.005921640433371067,-0.0039492505602538586,0.14375591278076172,0,0,0
4199029178,d4:22:cd:00:30:92,0.330782949924469,0.643917441368103,-0.29901280999183655,0.6217354536056519,-0.005879689939320087,0.0036301857326179743,0.1458883285522461,0,0,0
4199045845,d4:22:cd:00:30:92,0.3307265639305115,0.6439415812492371,-0.2989751696586609,0.6217586398124695,0.002664889208972454,0.00523221492767334,0.16047191619873047,0,0,0
4199062512,d4:22:cd:00:30:92,0.33075639605522156,0.6439226865768433,-0.2989640235900879,0.621767520904541,0.0003811873903032392,0.008853906765580177,0.14115428924560547,0,0,0
4199079179,d4:22:cd:00:30:92,0.33079391717910767,0.6439232230186462,-0.298940509557724,0.6217582821846008,0.002041329862549901,-0.0037439537700265646,0.1337909698486328,0,0,0
4199095846,d4:22:cd:00:30:92,0.33077937364578247,0.6439195871353149,-0.29890793561935425,0.6217854619026184,0.006642469670623541,-0.01505784410983324,0.15800857543945312,0,0,0
4199112513,d4:22:cd:00:30:92,0.33075839281082153,0.6439480781555176,-0.2989186942577362,0.6217619180679321,-0.01364169456064701,-0.003295139642432332,0.15210533142089844,0,0,0
4199129180,d4:22:cd:00:30:92,0.33076417446136475,0.6439424157142639,-0.29893314838409424,0.6217576265335083,0.002534008352085948,0.007228408940136433,0.1512584686279297,0,0,0
4199145847,d4:22:cd:00:30:92,0.3307727873325348,0.643932580947876,-0.298973023891449,0.6217440962791443,-0.01307307742536068,-0.005058321636170149,0.14983081817626953,0,0,0
4199162514,d4:22:cd:00:30:92,0.33081793785095215,0.6438887119293213,-0.2989678978919983,0.6217681765556335,-0.0033601121976971626,-0.006559434812515974,0.1552276611328125,0,0,0
4199179181,d4:22:cd:00:30:92,0.3309233784675598,0.6437982320785522,-0.2989550828933716,0.6218118071556091,-0.01694411225616932,0.010422074235975742,0.15412139892578125,0,0,0
4199195848,d4:22:cd:00:30:92,0.3310324251651764,0.6437146663665771,-0.29879942536354065,0.6219152808189392,0.012527495622634888,0.00697192782536149,0.13443660736083984,0,0,0
4199212515,d4:22:cd:00:30:92,0.33113861083984375,0.6436690092086792,-0.29875749349594116,0.6219260096549988,0.011711589992046356,-0.037114325910806656,0.14412498474121094,0,0,0
4199229182,d4:22:cd:00:30:92,0.33118411898612976,0.6436169147491455,-0.2988131046295166,0.6219289302825928,0.013716277666389942,-0.014330756850540638,0.15287113189697266,0,0,0
4199245849,d4:22:cd:00:30:92,0.3311495780944824,0.6436126828193665,-0.29880550503730774,0.6219553351402283,0.007325553335249424,0.0019904945511370897,0.1457204818725586,0,0,0
4199262516,d4:22:cd:00:30:92,0.33118176460266113,0.6435884833335876,-0.2988107204437256,0.6219608187675476,0.008017074316740036,0.00533380126580596,0.12844276428222656,0,0,0
4199279183,d4:22:cd:00:30:92,0.3312434256076813,0.6435572504997253,-0.2988341450691223,0.6219490170478821,-0.007630439009517431,0.0013438716996461153,0.14537525177001953,0,0,0
4199295850,d4:22:cd:00:30:92,0.3312569856643677,0.6435640454292297,-0.2987697720527649,0.6219656467437744,0.012349607422947884,-0.010835349559783936,0.14170265197753906,0,0,0
4199312517,d4:22:cd:00:30:92,0.33129021525382996,0.6435816287994385,-0.29872918128967285,0.6219492554664612,-0.0017279647290706635,-0.001700486522167921,0.1477336883544922,0,0,0
4199329184,d4:22:cd:00:30:92,0.33135730028152466,0.6435690522193909,-0.29869675636291504,0.6219421029090881,-0.0020599232520908117,-0.021457020193338394,0.14928054809570312,0,0,0
4199345851,d4:22:cd:00:30:92,0.33138585090637207,0.6435407996177673,-0.2986980676651001,0.6219555139541626,-0.014571242965757847,-0.00031045949435792863,0.14542007446289062,0,0,0
4199362518,d4:22:cd:00:30:92,0.3314087986946106,0.643509030342102,-0.2986208200454712,0.6220134496688843,0.01587788574397564,0.0002590515068732202,0.13165950775146484,0,0,0
4199379185,d4:22:cd:00:30:92,0.3314638137817383,0.6434776782989502,-0.29853397607803345,0.6220581531524658,0.006081270519644022,-0.001501336577348411,0.15253734588623047,0,0,0
4199395852,d4:22:cd:00:30:92,0.33151862025260925,0.643458902835846,-0.29852059483528137,0.6220546364784241,0.014810890890657902,-0.0031022480688989162,0.14023590087890625,0,0,0
4199412519,d4:22:cd:00:30:92,0.3315187692642212,0.6434721350669861,-0.2985287606716156,0.6220369935035706,0.004552819300442934,-0.017924398183822632,0.1482076644897461,0,0,0
4199429186,d4:22:cd:00:30:92,0.3315047025680542,0.6434723138809204,-0.2985943555831909,0.6220127940177917,-0.0007614807109348476,-0.0012288742000237107,0.1557912826538086,0,0,0
4199445853,d4:22:cd:00:30:92,0.3313802182674408,0.643522322177887,-0.2985953092575073,0.6220270991325378,0.0019363346509635448,0.006283172871917486,0.15096378326416016,0,0,0
4199462520,d4:22:cd:00:30:92,0.33138635754585266,0.6434993743896484,-0.29863467812538147,0.622028648853302,-0.011404832825064659,0.007755564525723457,0.13432788848876953,0,0,0
4199479187,d4:22:cd:00:30:92,0.3314145803451538,0.6434898376464844,-0.29863303899765015,0.6220241785049438,0.011876472271978855,0.003975178115069866,0.14444828033447266,0,0,0
4199495854,d4:22:cd:00:30:92,0.3313932418823242,0.6434811353683472,-0.2985715866088867,0.6220741271972656,-0.007442017551511526,-0.016454465687274933,0.14916229248046875,0,0,0
4199512521,d4:22:cd:00:30:92,0.3314242362976074,0.6434382200241089,-0.2985804080963135,0.6220977306365967,-0.009677315130829811,-0.008226953446865082,0.14505863189697266,0,0,0
4199529188,d4:22:cd:00:30:92,0.3314192295074463,0.6434102058410645,-0.29858893156051636,0.6221252679824829,0.010917797684669495,-0.008413363248109818,0.14507007598876953,0,0,0
4199545855,d4:22:cd:00:30:92,0.33136895298957825,0.6434227824211121,-0.29855620861053467,0.6221547722816467,0.011195512488484383,0.00020071463950444013,0.13948726654052734,0,0,0
4199562522,d4:22:cd:00:30:92,0.33136266469955444,0.6434705853462219,-0.2985233664512634,0.622124433517456,-0.003475877922028303,-0.008045908063650131,0.14248943328857422,0,0,0
4199579189,d4:22:cd:00:30:92,0.33137035369873047,0.643463134765625,-0.29849734902381897,0.6221404671669006,-0.01453050784766674,-0.007372574880719185,0.1476001739501953,0,0,0
4199595856,d4:22:cd:00:30:92,0.331403523683548,0.6434001922607422,-0.2984848618507385,0.6221938133239746,-0.0040760100819170475,-0.00534162437543273,0.13216686248779297,0,0,0
4199612523,d4:22:cd:00:30:92,0.33137404918670654,0.6433757543563843,-0.29842329025268555,0.6222642660140991,0.009733891114592552,0.0016527666011825204,0.14572620391845703,0,0,0
4199629190,d4:22:cd:00:30:92,0.33133718371391296,0.6433760523796082,-0.2983657121658325,0.6223112344741821,0.015081103891134262,-0.010610383935272694,0.1453266143798828,0,0,0
4199645857,d4:22:cd:00:30:92,0.33129987120628357,0.6434013843536377,-0.29838278889656067,0.622296929359436,-0.0019780476577579975,-0.0028989629354327917,0.1345071792602539,0,0,0
4199662524,d4:22:cd:00:30:92,0.3313071131706238,0.6433828473091125,-0.2983654737472534,0.6223204731941223,0.00467320904135704,0.004651863593608141,0.15340614318847656,0,0,0
4199679191,d4:22:cd:00:30:92,0.3312796354293823,0.643380343914032,-0.2983055114746094,0.6223664283752441,-0.010417226701974869,-0.007078208494931459,0.14501190185546875,0,0,0
4199695858,d4:22:cd:00:30:92,0.33121541142463684,0.6433767080307007,-0.2982332706451416,0.6224390268325806,0.0006921637686900795,-0.006797140929847956,0.13919639587402344,0,0,0
4199712525,d4:22:cd:00:30:92,0.3312045931816101,0.6433613896369934,-0.2982310354709625,0.62246173620224,-0.008930446580052376,-0.005603358149528503,0.1374340057373047,0,0,0
4199729192,d4:22:cd:00:30:92,0.3312091827392578,0.6433321833610535,-0.2982024550437927,0.6225031018257141,-0.0031488784588873386,0.010882175527513027,0.14044189453125,0,0,0
4199745859,d4:22:cd:00:30:92,0.3312116265296936,0.6433154940605164,-0.29816263914108276,0.622538149356842,0.002774298656731844,0.00015109476225916296,0.15314674377441406,0,0,0
4199762526,d4:22:cd:00:30:92,0.33120766282081604,0.6433157324790955,-0.29813146591186523,0.6225548982620239,0.017571667209267616,-0.02027799002826214,0.13759994506835938,0,0,0
4199779193,d4:22:cd:00:30:92,0.3312152624130249,0.6433010101318359,-0.29816552996635437,0.6225497126579285,-0.0014560471754521132,0.002977863186970353,0.15116310119628906,0,0,0
4199795860,d4:22:cd:00:30:92,0.33125782012939453,0.6432600021362305,-0.2981824278831482,0.6225613355636597,-0.003144142683595419,0.015368192456662655,0.12720108032226562,0,0,0
4199812527,d4:22:cd:00:30:92,0.3313519358634949,0.6432030200958252,-0.29816675186157227,0.6225776672363281,-0.007032681256532669,-0.002789329970255494,0.13747596740722656,0,0,0
4199829194,d4:22:cd:00:30:92,0.3314886689186096,0.643119752407074,-0.29812079668045044,0.6226128935813904,-0.000635978183709085,0.0008273331914097071,0.14777755737304688,0,0,0
4199845861,d4:22:cd:00:30:92,0.3315954804420471,0.6430442929267883,-0.29808324575424194,0.6226520538330078,0.0007761208107694983,-0.021318554878234863,0.14223957061767578,0,0,0
4199862528,d4:22:cd:00:30:92,0.3316192030906677,0.642994225025177,-0.29812711477279663,0.62267005443573,0.003914773464202881,-0.016589801758527756,0.1413869857788086,0,0,0
4199879195,d4:22:cd:00:30:92,0.3315604329109192,0.6430003643035889,-0.29818248748779297,0.6226682662963867,0.011966352351009846,0.008047359995543957,0.15078163146972656,0,0,0
4199895862,d4:22:cd:00:30:92,0.331508994102478,0.6430211663246155,-0.29820454120635986,0.6226637959480286,-0.007821374572813511,0.012905861251056194,0.1378307342529297,0,0,0
4199912529,d4:22:cd:00:30:92,0.33152925968170166,0.6430380940437317,-0.2981988787651062,0.6226382851600647,0.01836361549794674,-0.01092989556491375,0.13967132568359375,0,0,0
4199929196,d4:22:cd:00:30:92,0.33152514696121216,0.6430699229240417,-0.2981790602207184,0.6226170659065247,-0.0018164478242397308,0.0012755884090438485,0.1508312225341797,0,0,0
4199945863,d4:22:cd:00:30:92,0.33154430985450745,0.6430750489234924,-0.2981877326965332,0.6225974559783936,-0.0014968382893130183,-0.0033958323765546083,0.1567392349243164,0,0,0
4199962530,d4:22:cd:00:30:92,0.3315733075141907,0.643084704875946,-0.2981981933116913,0.6225669980049133,-0.00023968970344867557,-0.0026686328928917646,0.13864803314208984,0,0,0
4199979197,d4:22:cd:00:30:92,0.33152273297309875,0.6430985331535339,-0.29819822311401367,0.6225795149803162,-0.0007982485694810748,-0.006283508148044348,0.13725852966308594,0,0,0
4199995864,d4:22:cd:00:30:92,0.3314930200576782,0.6430949568748474,-0.29821762442588806,0.6225898265838623,0.01077111717313528,-0.005310220643877983,0.13377666473388672,0,0,0
4200012531,d4:22:cd:00:30:92,0.3314365744590759,0.6431112289428711,-0.29823780059814453,0.6225935816764832,-0.012908333912491798,0.0009556296281516552,0.14815044403076172,0,0,0
4200029198,d4:22:cd:00:30:92,0.3313674330711365,0.643123209476471,-0.29824644327163696,0.6226137280464172,0.0015747465658932924,-0.009841945953667164,0.14060497283935547,0,0,0
4200045865,d4:22:cd:00:30:92,0.3314020037651062,0.6430873274803162,-0.2982676327228546,0.6226222515106201,-0.012851143255829811,0.006424321327358484,0.1458759307861328,0,0,0
4200062532,d4:22:cd:00:30:92,0.331471711397171,0.6430315971374512,-0.29823946952819824,0.6226561665534973,-0.005588843487203121,-0.004522337578237057,0.15927696228027344,0,0,0
4200079199,d4:22:cd:00:30:92,0.3315845727920532,0.6429548263549805,-0.29820525646209717,0.6226919889450073,-0.013903665356338024,0.013288627378642559,0.14349937438964844,0,0,0
4200095866,d4:22:cd:00:30:92,0.331681489944458,0.642913281917572,-0.29817065596580505,0.622699499130249,0.02248775027692318,-0.022692041471600533,0.14800453186035156,0,0,0
4200112533,d4:22:cd:00:30:92,0.3317038416862488,0.6429393887519836,-0.29813140630722046,0.6226794123649597,-0.04563969746232033,0.00958200078457594,0.15401363372802734,0,0,0
4200129200,d4:22:cd:00:30:92,0.33183616399765015,0.642833948135376,-0.2980567216873169,0.6227535605430603,0.030240394175052643,-0.016781575977802277,0.14087963104248047,0,0,0
4200145867,d4:22:cd:00:30:92,0.3318702280521393,0.6428583860397339,-0.2979809045791626,0.622746467590332,0.011619865894317627,0.008002545684576035,0.15133285522460938,0,0,0
4200162534,d4:22:cd:00:30:92,0.33194494247436523,0.6428194046020508,-0.29791468381881714,0.622778594493866,-0.03546024486422539,0.0025530767161399126,0.14996814727783203,0,0,0
4200179201,d4:22:cd:00:30:92,0.3320319652557373,0.6427538394927979,-0.29783353209495544,0.6228386163711548,0.030334968119859695,-0.008218683302402496,0.14125919342041016,0,0,0
4200195868,d4:22:cd:00:30:92,0.3321225345134735,0.6426492929458618,-0.2977660298347473,0.6229305267333984,-0.029372647404670715,-0.003429135773330927,0.1518688201904297,0,0,0
4200212535,d4:22:cd:00:30:92,0.3321160078048706,0.6426244378089905,-0.2977420389652252,0.6229711174964905,-0.0035430854186415672,-0.013296226970851421,0.13857173919677734,0,0,0
4200229202,d4:22:cd:00:30:92,0.3320469260215759,0.6426618099212646,-0.2977367639541626,0.6229720115661621,0.0075568752363324165,-0.006866765208542347,0.13824462890625,0,0,0
4200245869,d4:22:cd:00:30:92,0.3319071829319,0.6427439451217651,-0.2977910041809082,0.6229358315467834,0.0011930702021345496,-0.0008399616926908493,0.14786815643310547,0,0,0
4200262536,d4:22:cd:00:30:92,0.33186614513397217,0.6427940726280212,-0.2978951632976532,0.6228561997413635,-0.001555133261717856,0.003781168721616268,0.14587783813476562,0,0,0
4200279203,d4:22:cd:00:30:92,0.33183789253234863,0.6428577303886414,-0.29795992374420166,0.6227744817733765,0.013582631014287472,-0.0008324739756062627,0.14953327178955078,0,0,0
4200295870,d4:22:cd:00:30:92,0.33178770542144775,0.6429278254508972,-0.29804885387420654,0.6226862072944641,0.00347429933026433,0.001629968173801899,0.14078521728515625,0,0,0
4200312537,d4:22:cd:00:30:92,0.33164605498313904,0.643015444278717,-0.29811227321624756,0.6226409077644348,-0.01566559076309204,-0.0061299544759094715,0.13576507568359375,0,0,0
4200329204,d4:22:cd:00:30:92,0.331534743309021,0.6430513858795166,-0.2982170581817627,0.6226129531860352,0.009219629690051079,-0.005637443624436855,0.1388692855834961,0,0,0
4200345871,d4:22:cd:00:30:92,0.33145785331726074,0.6431092023849487,-0.2982630133628845,0.6225720643997192,0.00647198548540473,0.015051250346004963,0.1322174072265625,0,0,0
4200362538,d4:22:cd:00:30:92,0.33148306608200073,0.6431180238723755,-0.29830288887023926,0.6225304007530212,-0.004437402822077274,0.007902189157903194,0.14197349548339844,0,0,0
4200379205,d4:22:cd:00:30:92,0.33149945735931396,0.6431202292442322,-0.2982872426509857,0.6225268840789795,-0.0019638407975435257,0.000010616865438350942,0.14285945892333984,0,0,0
4200395872,d4:22:cd:00:30:92,0.331534743309021,0.6431064605712891,-0.2982923984527588,0.622519850730896,-0.013650760054588318,-0.005609281361103058,0.14927101135253906,0,0,0
4200412539,d4:22:cd:00:30:92,0.3315851390361786,0.643063485622406,-0.298281192779541,0.6225427985191345,-0.0012596352025866508,-0.018633157014846802,0.1382617950439453,0,0,0
4200429206,d4:22:cd:00:30:92,0.33161503076553345,0.6430272459983826,-0.2982827425003052,0.6225634813308716,0.00679106405004859,-0.009852898307144642,0.1378612518310547,0,0,0
4200445873,d4:22:cd:00:30:92,0.3315350413322449,0.6430630683898926,-0.29827094078063965,0.6225748062133789,-0.0007300631841644645,-0.012158545665442944,0.1434946060180664,0,0,0
4200462540,d4:22:cd:00:30:92,0.33151522278785706,0.6430904865264893,-0.29825299978256226,0.6225656867027283,0.0026128804311156273,0.008525454439222813,0.14937305450439453,0,0,0
4200479207,d4:22:cd:00:30:92,0.3316267132759094,0.6430702209472656,-0.29830557107925415,0.6225021481513977,0.012754054740071297,-0.011779691092669964,0.13228416442871094,0,0,0
4200495874,d4:22:cd:00:30:92,0.33168983459472656,0.6430827975273132,-0.2983306646347046,0.622443437576294,-0.011071337386965752,-0.0017934679053723812,0.14623069763183594,0,0,0
4200512541,d4:22:cd:00:30:92,0.3317219614982605,0.6430987119674683,-0.29829713702201843,0.62242591381073,-0.00621417723596096,0.0009993264684453607,0.13167381286621094,0,0,0
4200529208,d4:22:cd:00:30:92,0.3317720293998718,0.6430812478065491,-0.2983071506023407,0.6224124431610107,0.003015385242179036,-0.005784962326288223,0.13588333129882812,0,0,0
4200545875,d4:22:cd:00:30:92,0.33174148201942444,0.6430718898773193,-0.29833030700683594,0.6224272847175598,-0.0006475589470937848,-0.007784620858728886,0.1506500244140625,0,0,0
4200562542,d4:22:cd:00:30:92,0.3318062424659729,0.6430578231811523,-0.2984252870082855,0.6223618388175964,0.005349587183445692,-0.015183570794761181,0.1415567398071289,0,0,0
4200579209,d4:22:cd:00:30:92,0.33175283670425415,0.6430909037590027,-0.2984831929206848,0.6223282217979431,0.014609547331929207,-0.01583075150847435,0.14124774932861328,0,0,0
4200595876,d4:22:cd:00:30:92,0.3316110074520111,0.6431746482849121,-0.2985265254974365,0.6222966313362122,-0.004021375440061092,0.002841073088347912,0.16025924682617188,0,0,0
4200612543,d4:22:cd:00:30:92,0.33149832487106323,0.6432327032089233,-0.2985602021217346,0.622280478477478,-0.009826579131186008,0.011352782137691975,0.1416158676147461,0,0,0
4200629210,d4:22:cd:00:30:92,0.3315025568008423,0.6432266235351562,-0.29858294129371643,0.6222735047340393,0.007498594466596842,0.007261712569743395,0.1347055435180664,0,0,0
4200645877,d4:22:cd:00:30:92,0.3315979540348053,0.6431953310966492,-0.2985685467720032,0.6222619414329529,0.0006685412372462451,-0.009519081562757492,0.14343643188476562,0,0,0
4200662544,d4:22:cd:00:30:92,0.3316459357738495,0.6431597471237183,-0.29856520891189575,0.6222746968269348,-0.005642109550535679,-0.02567269839346409,0.15320873260498047,0,0,0
4200679211,d4:22:cd:00:30:92,0.3316890299320221,0.6431179642677307,-0.2986256778240204,0.6222660541534424,-0.002975683892145753,-0.003694892628118396,0.1495361328125,0,0,0
4200695878,d4:22:cd:00:30:92,0.33170658349990845,0.6430957317352295,-0.29868102073669434,0.6222531199455261,-0.0017883969703689218,0.0003913711989298463,0.14770984649658203,0,0,0
4200712545,d4:22:cd:00:30:92,0.3317197263240814,0.6430767774581909,-0.29867106676101685,0.622270405292511,0.0014500542310997844,-0.005244843196123838,0.15392398834228516,0,0,0
4200729212,d4:22:cd:00:30:92,0.3317496180534363,0.6430385112762451,-0.2986605763435364,0.6222989559173584,0.004801086150109768,-0.004701706580817699,0.14282608032226562,0,0,0
4200745879,d4:22:cd:00:30:92,0.3317498564720154,0.6430278420448303,-0.2986615300178528,0.6223095059394836,0.01354762353003025,-0.014309857971966267,0.14112281799316406,0,0,0
4200762546,d4:22:cd:00:30:92,0.33175185322761536,0.6430087089538574,-0.2987058460712433,0.6223068237304688,0.008610975928604603,-0.0037433949764817953,0.14447879791259766,0,0,0
4200779213,d4:22:cd:00:30:92,0.3317352533340454,0.6430002450942993,-0.29873383045196533,0.6223110556602478,0.00692561874166131,0.0070036668330430984,0.1421070098876953,0,0,0
4200795880,d4:22:cd:00:30:92,0.3316779136657715,0.6430357098579407,-0.29873690009117126,0.6223036646842957,-0.005069232080131769,-0.0033268786501139402,0.14944076538085938,0,0,0
4200812547,d4:22:cd:00:30:92,0.3316888213157654,0.6430148482322693,-0.29873818159103394,0.6223186254501343,-0.019864071160554886,0.00308805494569242,0.13770198822021484,0,0,0
4200829214,d4:22:cd:00:30:92,0.3316711187362671,0.6430102586746216,-0.29871588945388794,0.6223435997962952,-0.0022060030605643988,-0.01605258882045746,0.14484882354736328,0,0,0
4200845881,d4:22:cd:00:30:92,0.3316921591758728,0.6429523229598999,-0.2987058162689209,0.6223970651626587,-0.012145848013460636,0.007399955298751593,0.15164661407470703,0,0,0
4200862548,d4:22:cd:00:30:92,0.3317655622959137,0.6428884863853455,-0.2986762225627899,0.6224380731582642,-0.0026821554638445377,0.0020011113956570625,0.15094661712646484,0,0,0
4200879215,d4:22:cd:00:30:92,0.33179622888565063,0.6428402066230774,-0.29860150814056396,0.6225072741508484,0.004430152475833893,-0.018627122044563293,0.14048099517822266,0,0,0
4200895882,d4:22:cd:00:30:92,0.3317576050758362,0.6428994536399841,-0.2986459732055664,0.6224454641342163,0.016277527436614037,-0.046211861073970795,0.151031494140625,0,0,0
4200912549,d4:22:cd:00:30:92,0.3315615653991699,0.6429784893989563,-0.29877328872680664,0.6224071383476257,0.004483083263039589,-0.024653367698192596,0.13614177703857422,0,0,0
4200929216,d4:22:cd:00:30:92,0.33134669065475464,0.643075168132782,-0.29889586567878723,0.6223629713058472,0.01152992993593216,0.00019613261974882334,0.13625240325927734,0,0,0
4200945883,d4:22:cd:00:30:92,0.33122122287750244,0.6431378126144409,-0.29901090264320374,0.622309684753418,-0.015536720864474773,0.005688628181815147,0.15006351470947266,0,0,0
4200962550,d4:22:cd:00:30:92,0.33118492364883423,0.6431665420532227,-0.2990402579307556,0.6222852468490601,-0.011150768026709557,-0.0014535047812387347,0.1490468978881836,0,0,0
4200979217,d4:22:cd:00:30:92,0.33116263151168823,0.6431775093078613,-0.2990575134754181,0.6222773194313049,-0.0028552243020385504,-0.010811656713485718,0.14962005615234375,0,0,0
4200995884,d4:22:cd:00:30:92,0.33113378286361694,0.6431922912597656,-0.29909056425094604,0.6222615242004395,0.0017466000281274319,-0.006375818978995085,0.1298236846923828,0,0,0
4201012551,d4:22:cd:00:30:92,0.3310851454734802,0.6432024240493774,-0.2991146445274353,0.6222654581069946,-0.00308751012198627,0.002665950683876872,0.14599227905273438,0,0,0
4201029218,d4:22:cd:00:30:92,0.3310855031013489,0.6431847214698792,-0.29910093545913696,0.6222901940345764,0.0062455665320158005,0.003263847902417183,0.14588451385498047,0,0,0
4201045885,d4:22:cd:00:30:92,0.3311777710914612,0.6431581377983093,-0.2990465760231018,0.6222946047782898,-0.006059939041733742,-0.008340385742485523,0.15300846099853516,0,0,0
4201062552,d4:22:cd:00:30:92,0.3312768340110779,0.6431427001953125,-0.29896044731140137,0.622299313545227,0.010715015232563019,-0.012497615069150925,0.13745975494384766,0,0,0
4201079219,d4:22:cd:00:30:92,0.3313296139240265,0.6431680917739868,-0.2989065647125244,0.6222707033157349,0.00398990185931325,-0.009956161491572857,0.14495086669921875,0,0,0
4201095886,d4:22:cd:00:30:92,0.33133602142333984,0.643174409866333,-0.2988687753677368,0.6222789883613586,-0.0019630026072263718,-0.016688929870724678,0.14002037048339844,0,0,0
4201112553,d4:22:cd:00:30:92,0.3312681317329407,0.6432185769081116,-0.2989049255847931,0.6222521662712097,0.006826239172369242,-0.014275772497057915,0.14329814910888672,0,0,0
4201129220,d4:22:cd:00:30:92,0.3311716616153717,0.6432498693466187,-0.2989352345466614,0.6222565174102783,-0.007263891864567995,-0.00014997718972153962,0.13864803314208984,0,0,0
4201145887,d4:22:cd:00:30:92,0.3311333656311035,0.643284261226654,-0.2989712953567505,0.6222240924835205,-0.00795577559620142,-0.003344983095303178,0.14434528350830078,0,0,0
4201162554,d4:22:cd:00:30:92,0.33112961053848267,0.6433212161064148,-0.2989691495895386,0.6221888065338135,0.006566754542291164,-0.009333118796348572,0.14336204528808594,0,0,0
4201179221,d4:22:cd:00:30:92,0.33112281560897827,0.6433196067810059,-0.298994243144989,0.6221820712089539,-0.006588798947632313,-0.005896383430808783,0.1413888931274414,0,0,0
4201195888,d4:22:cd:00:30:92,0.33113497495651245,0.6433289051055908,-0.29901739954948425,0.6221548914909363,0.014283888973295689,-0.0165737085044384,0.13567733764648438,0,0,0
4201212555,d4:22:cd:00:30:92,0.3310394287109375,0.6434104442596436,-0.2990379333496094,0.6221114993095398,0.0050177681259810925,-0.009663471020758152,0.15415573120117188,0,0,0
4201229222,d4:22:cd:00:30:92,0.3309963345527649,0.6434532999992371,-0.2990983724594116,0.6220611333847046,-0.008302193135023117,-0.002533519407734275,0.1609516143798828,0,0,0
4201245889,d4:22:cd:00:30:92,0.3309386968612671,0.643520712852478,-0.29911109805107117,0.6220159530639648,-0.014710002578794956,0.003368898993358016,0.14353179931640625,0,0,0
4201262556,d4:22:cd:00:30:92,0.3310092091560364,0.6435302495956421,-0.29909899830818176,0.6219744086265564,-0.018230555579066277,0.016847511753439903,0.14912796020507812,0,0,0
4201279223,d4:22:cd:00:30:92,0.33103853464126587,0.643578290939331,-0.2990654408931732,0.6219252347946167,-0.000057820008805720136,-0.017508327960968018,0.1378955841064453,0,0,0
4201295890,d4:22:cd:00:30:92,0.330958753824234,0.6436501145362854,-0.29909104108810425,0.6218809485435486,-0.017630282789468765,-0.024448294192552567,0.15096378326416016,0,0,0
4201312557,d4:22:cd:00:30:92,0.3308223783969879,0.643750786781311,-0.2991712689399719,0.6218106746673584,0.009320699609816074,-0.014101991429924965,0.14023303985595703,0,0,0
4201329224,d4:22:cd:00:30:92,0.3306940793991089,0.6438723206520081,-0.29922330379486084,0.6217280626296997,-0.014263702556490898,-0.002342527499422431,0.14945507049560547,0,0,0
4201345891,d4:22:cd:00:30:92,0.3306369185447693,0.6439625024795532,-0.2992496192455292,0.6216525435447693,0.011083490215241909,-0.0006854024832136929,0.15047550201416016,0,0,0
4201362558,d4:22:cd:00:30:92,0.3305767774581909,0.6440183520317078,-0.29925358295440674,0.6216247081756592,-0.016840346157550812,-0.0011791426222771406,0.14893722534179688,0,0,0
4201379225,d4:22:cd:00:30:92,0.3305839002132416,0.6440436840057373,-0.29927778244018555,0.6215829253196716,-0.0032032059971243143,-0.00029850154533050954,0.14995384216308594,0,0,0
4201395892,d4:22:cd:00:30:92,0.3305659294128418,0.6440777778625488,-0.2992714047431946,0.6215603351593018,-0.014156249351799488,-0.003571178298443556,0.14266490936279297,0,0,0
4201412559,d4:22:cd:00:30:92,0.3304944634437561,0.6441164016723633,-0.2992643713951111,0.6215616464614868,-0.009937386028468609,-0.004579780623316765,0.14972496032714844,0,0,0
4201429226,d4:22:cd:00:30:92,0.33049729466438293,0.6441227197647095,-0.29927879571914673,0.6215466856956482,0.011667739599943161,0.0003274464688729495,0.15185832977294922,0,0,0
4201445893,d4:22:cd:00:30:92,0.33054858446121216,0.6441102027893066,-0.2992589473724365,0.6215419769287109,-0.006248528137803078,0.0041221375577151775,0.15740203857421875,0,0,0
4201462560,d4:22:cd:00:30:92,0.3305797278881073,0.6440987586975098,-0.2992270588874817,0.6215524673461914,0.014217072166502476,-0.0022962603252381086,0.1420278549194336,0,0,0
4201479227,d4:22:cd:00:30:92,0.33060315251350403,0.6440705060958862,-0.2991899847984314,0.6215872764587402,0.0029773463029414415,-0.00024038818082772195,0.1383047103881836,0,0,0
4201495894,d4:22:cd:00:30:92,0.3306191861629486,0.6440536975860596,-0.29918861389160156,0.6215966939926147,-0.009114858694374561,-0.012152510695159435,0.1458148956298828,0,0,0
4201512561,d4:22:cd:00:30:92,0.33067864179611206,0.6440056562423706,-0.29919660091400146,0.6216112375259399,-0.004131427500396967,0.011350770480930805,0.14061832427978516,0,0,0
4201529228,d4:22:cd:00:30:92,0.3307892680168152,0.6439377665519714,-0.29920142889022827,0.6216202974319458,0.006909511983394623,-0.00987178459763527,0.14603805541992188,0,0,0
4201545895,d4:22:cd:00:30:92,0.3308727443218231,0.6438847184181213,-0.2992117702960968,0.6216258406639099,-0.00003299610034446232,0.00031694138306193054,0.1458139419555664,0,0,0
4201562562,d4:22:cd:00:30:92,0.3308762311935425,0.6438747048377991,-0.2992069721221924,0.621636688709259,-0.007633666042238474,0.004100121557712555,0.1481943130493164,0,0,0
4201579229,d4:22:cd:00:30:92,0.3308717608451843,0.6438340544700623,-0.29918742179870605,0.6216904520988464,0.003373704617843032,-0.0019863597117364407,0.13576507568359375,0,0,0
4201595896,d4:22:cd:00:30:92,0.3308565616607666,0.6438308358192444,-0.2991839051246643,0.6217036247253418,-0.0007418395252898335,-0.023191815242171288,0.14204883575439453,0,0,0
4201612563,d4:22:cd:00:30:92,0.3308834135532379,0.6438161730766296,-0.29919368028640747,0.6216996908187866,-0.00273315841332078,-0.011807630769908428,0.15178585052490234,0,0,0
4201629230,d4:22:cd:00:30:92,0.3309246003627777,0.6438296437263489,-0.29921573400497437,0.6216533184051514,-0.005464598536491394,-0.003736354410648346,0.13517475128173828,0,0,0
4201645897,d4:22:cd:00:30:92,0.33097946643829346,0.6438159942626953,-0.29919958114624023,0.621645987033844,-0.008985793218016624,-0.007070050109177828,0.14760684967041016,0,0,0
4201662564,d4:22:cd:00:30:92,0.33103418350219727,0.6438097953796387,-0.29919707775115967,0.6216245889663696,0.014224923215806484,-0.0050905076786875725,0.1444244384765625,0,0,0
4201679231,d4:22:cd:00:30:92,0.3310339152812958,0.6438266634941101,-0.29918551445007324,0.6216127276420593,-0.006636448670178652,0.0028903577476739883,0.14586353302001953,0,0,0
4201695898,d4:22:cd:00:30:92,0.33102917671203613,0.6438555717468262,-0.2991797626018524,0.6215881705284119,0.005161948036402464,-0.009510364383459091,0.1295156478881836,0,0,0
4201712565,d4:22:cd:00:30:92,0.3309776782989502,0.6439043283462524,-0.29919999837875366,0.6215552687644958,0.009762347675859928,-0.012301817536354065,0.1383800506591797,0,0,0
4201729232,d4:22:cd:00:30:92,0.3309442400932312,0.6439164876937866,-0.2992247939109802,0.6215484142303467,0.00245202099904418,0.004654880613088608,0.15245342254638672,0,0,0
4201745899,d4:22:cd:00:30:92,0.330906480550766,0.6439268589019775,-0.29922837018966675,0.6215561628341675,0.0016967287519946694,0.002744515659287572,0.14089107513427734,0,0,0
4201762566,d4:22:cd:00:30:92,0.33088797330856323,0.643923819065094,-0.2992083430290222,0.6215787529945374,0.010191003791987896,-0.017038503661751747,0.14525222778320312,0,0,0
4201779233,d4:22:cd:00:30:92,0.3308842182159424,0.643912672996521,-0.2991982102394104,0.6215972304344177,0.0026661043521016836,0.003738254075869918,0.14514732360839844,0,0,0
4201795900,d4:22:cd:00:30:92,0.33088862895965576,0.6439188718795776,-0.29919570684432983,0.6215896010398865,-0.001369198434986174,0.00689336284995079,0.13385009765625,0,0,0
4201812567,d4:22:cd:00:30:92,0.33094096183776855,0.6438940167427063,-0.29918283224105835,0.6215938329696655,-0.004741352517157793,-0.006590391043573618,0.14977073669433594,0,0,0
4201829234,d4:22:cd:00:30:92,0.3310531973838806,0.643847644329071,-0.29924699664115906,0.6215512156486511,-0.0017388470005244017,-0.009267517365515232,0.14418506622314453,0,0,0
4201845901,d4:22:cd:00:30:92,0.3311085104942322,0.6438086032867432,-0.2991926074028015,0.6215882897377014,-0.009619648568332195,0.008562669157981873,0.14470767974853516,0,0,0
4201862568,d4:22:cd:00:30:92,0.33119386434555054,0.6437867879867554,-0.29913824796676636,0.6215915083885193,0.015678120777010918,-0.012426091358065605,0.13975143432617188,0,0,0
4201879235,d4:22:cd:00:30:92,0.3312245309352875,0.6437767148017883,-0.29904705286026,0.6216296553611755,0.0011797433253377676,-0.01673676259815693,0.13463783264160156,0,0,0
4201895902,d4:22:cd:00:30:92,0.3312382698059082,0.643770694732666,-0.2990013062953949,0.6216504573822021,0.01777629181742668,-0.010847083292901516,0.14159774780273438,0,0,0
4201912569,d4:22:cd:00:30:92,0.331271231174469,0.6437820196151733,-0.29897135496139526,0.6216354966163635,-0.0037994966842234135,-0.0032658595591783524,0.15915393829345703,0,0,0
4201929236,d4:22:cd:00:30:92,0.33129391074180603,0.643780529499054,-0.2989612817764282,0.6216299533843994,0.0052715810015797615,-0.007830440998077393,0.1436471939086914,0,0,0
4201945903,d4:22:cd:00:30:92,0.3312883675098419,0.643753707408905,-0.29897788166999817,0.6216525435447693,-0.00989561714231968,-0.020996248349547386,0.1379842758178711,0,0,0
4201962570,d4:22:cd:00:30:92,0.33123815059661865,0.6437549591064453,-0.2989751696586609,0.621679425239563,0.013447028584778309,0.00514437397941947,0.1347217559814453,0,0,0
4201979237,d4:22:cd:00:30:92,0.33124202489852905,0.6437556147575378,-0.2990586459636688,0.6216365098953247,-0.02003219537436962,0.004443660844117403,0.14710617065429688,0,0,0
4201995904,d4:22:cd:00:30:92,0.3312038779258728,0.6437665224075317,-0.29906511306762695,0.6216423511505127,0.005983916576951742,0.00448087602853775,0.14339351654052734,0,0,0
4202012571,d4:22:cd:00:30:92,0.3312254250049591,0.6437629461288452,-0.29900485277175903,0.6216636300086975,-0.011619572527706623,0.009043669328093529,0.14323139190673828,0,0,0
4202029238,d4:22:cd:00:30:92,0.3313189744949341,0.6437168717384338,-0.298978328704834,0.6216741800308228,-0.008371231146156788,0.003986353520303965,0.14519214630126953,0,0,0
4202045905,d4:22:cd:00:30:92,0.3313254117965698,0.6437236070632935,-0.2989402413368225,0.6216820478439331,0.013449892401695251,-0.025434991344809532,0.15027999877929688,0,0,0
4202062572,d4:22:cd:00:30:92,0.3312470316886902,0.6437576413154602,-0.2989574074745178,0.621680498123169,0.0033476233948022127,-0.00683737313374877,0.1530132293701172,0,0,0
4202079239,d4:22:cd:00:30:92,0.3311534821987152,0.6437999606132507,-0.2989850640296936,0.6216732263565063,0.002494069281965494,-0.008803504519164562,0.1409740447998047,0,0,0
4202095906,d4:22:cd:00:30:92,0.33114057779312134,0.6438326239585876,-0.29903513193130493,0.6216222047805786,-0.002717917552217841,-0.001550509361550212,0.1387186050415039,0,0,0
4202112573,d4:22:cd:00:30:92,0.3311668634414673,0.6438547968864441,-0.29903751611709595,0.6215839385986328,0.0026869610883295536,-0.0006976957083679736,0.1437082290649414,0,0,0
4202129240,d4:22:cd:00:30:92,0.3312268555164337,0.643849790096283,-0.2990458607673645,0.6215533018112183,-0.015337444841861725,-0.011353005655109882,0.15240192413330078,0,0,0
4202145907,d4:22:cd:00:30:92,0.3312069773674011,0.6438738703727722,-0.2990402281284332,0.6215416193008423,-0.0015566280344501138,-0.007631402928382158,0.1393136978149414,0,0,0
4202162574,d4:22:cd:00:30:92,0.3311713635921478,0.6438767313957214,-0.2990485429763794,0.6215535402297974,0.004979198332875967,-0.00018730385636445135,0.14858055114746094,0,0,0
4202179241,d4:22:cd:00:30:92,0.3311631381511688,0.6438889503479004,-0.29905998706817627,0.6215396523475647,0.007989414967596531,0.005731654353439808,0.14566326141357422,0,0,0
4202195908,d4:22:cd:00:30:92,0.3311178982257843,0.6439371705055237,-0.2990584969520569,0.621514618396759,0.006330627482384443,0.007399508263915777,0.14908504486083984,0,0,0
4202212575,d4:22:cd:00:30:92,0.3311236500740051,0.6439545154571533,-0.2990567982196808,0.6214944124221802,-0.0021124768536537886,0.010535841807723045,0.1503620147705078,0,0,0
4202229242,d4:22:cd:00:30:92,0.331153929233551,0.6439577341079712,-0.29904669523239136,0.6214798092842102,-0.006028046831488609,-0.008199907839298248,0.14615249633789062,0,0,0
4202245909,d4:22:cd:00:30:92,0.3311990201473236,0.6439531445503235,-0.29901549220085144,0.6214755773544312,0.003772563533857465,0.005530269350856543,0.13784217834472656,0,0,0
4202262576,d4:22:cd:00:30:92,0.3312492370605469,0.6439587473869324,-0.29899510741233826,0.621452808380127,0.00637080380693078,-0.011767063289880753,0.1575326919555664,0,0,0
4202279243,d4:22:cd:00:30:92,0.33133044838905334,0.643923819065094,-0.2989293336868286,0.6214773654937744,-0.012937251478433609,0.003382421564310789,0.1516103744506836,0,0,0
4202295910,d4:22:cd:00:30:92,0.3314651548862457,0.6438133716583252,-0.2988321781158447,0.621566653251648,-0.010960656218230724,0.001931487233377993,0.16059112548828125,0,0,0
4202312577,d4:22:cd:00:30:92,0.3315577208995819,0.6437438726425171,-0.29877251386642456,0.6216179132461548,0.01713915541768074,-0.0009891565423458815,0.14513111114501953,0,0,0
4202329244,d4:22:cd:00:30:92,0.3316114842891693,0.6437143683433533,-0.29874926805496216,0.6216309666633606,0.01328879501670599,-0.00775534100830555,0.14360809326171875,0,0,0
4202345911,d4:22:cd:00:30:92,0.33153200149536133,0.6437504291534424,-0.2987312078475952,0.6216446757316589,-0.006888110656291246,0.0032161278650164604,0.15173912048339844,0,0,0
4202362578,d4:22:cd:00:30:92,0.33151713013648987,0.6437649130821228,-0.29874366521835327,0.6216316223144531,-0.0013403792399913073,0.00487470580264926,0.1512899398803711,0,0,0
4202379245,d4:22:cd:00:30:92,0.331587016582489,0.6437405943870544,-0.298723042011261,0.6216295957565308,-0.005316115915775299,0.02161414921283722,0.13767433166503906,0,0,0
4202395912,d4:22:cd:00:30:92,0.33167052268981934,0.6437156200408936,-0.29867154359817505,0.6216355562210083,-0.0053509981371462345,-0.008783388882875443,0.1425609588623047,0,0,0
4202412579,d4:22:cd:00:30:92,0.3317573070526123,0.6436640620231628,-0.2986593246459961,0.6216485500335693,0.008334127254784107,-0.011578753590583801,0.15282821655273438,0,0,0
4202429246,d4:22:cd:00:30:92,0.3317505419254303,0.6436927318572998,-0.2986583411693573,0.6216228008270264,0.005683473311364651,-0.008607259951531887,0.14960479736328125,0,0,0
4202445913,d4:22:cd:00:30:92,0.331670343875885,0.6437451839447021,-0.2986685335636139,0.6216064691543579,-0.012899477034807205,0.0007580441888421774,0.13539791107177734,0,0,0
4202462580,d4:22:cd:00:30:92,0.3316514492034912,0.6437534093856812,-0.2986942529678345,0.6215956807136536,-0.004611910320818424,0.015116069465875626,0.15056133270263672,0,0,0
4202479247,d4:22:cd:00:30:92,0.33171209692955017,0.6437402367591858,-0.29868513345718384,0.6215813159942627,-0.001399470493197441,-0.00030308356508612633,0.13348388671875,0,0,0
4202495914,d4:22:cd:00:30:92,0.3317779004573822,0.643712043762207,-0.2986680567264557,0.6215835809707642,-0.004682708065956831,0.002838167594745755,0.14431381225585938,0,0,0
4202512581,d4:22:cd:00:30:92,0.3318387269973755,0.643668532371521,-0.29866406321525574,0.6215981245040894,-0.011984541080892086,0.0013428658712655306,0.14185142517089844,0,0,0
4202529248,d4:22:cd:00:30:92,0.3318799138069153,0.6436280608177185,-0.29863566160202026,0.6216316819190979,-0.01525710616260767,-0.008764389902353287,0.13179683685302734,0,0,0
4202545915,d4:22:cd:00:30:92,0.3318956196308136,0.6436219811439514,-0.29860061407089233,0.6216463446617126,0.01025589182972908,-0.0018596277805045247,0.1458730697631836,0,0,0
4202562582,d4:22:cd:00:30:92,0.33187001943588257,0.6436486840248108,-0.2985646724700928,0.6216496229171753,-0.011470223776996136,-0.009611057117581367,0.13671875,0,0,0
4202579249,d4:22:cd:00:30:92,0.3318907916545868,0.6436155438423157,-0.2986401319503784,0.621636688709259,-0.008559750393033028,0.0023843245580792427,0.15769195556640625,0,0,0
4202595916,d4:22:cd:00:30:92,0.33192354440689087,0.6436007022857666,-0.2986393868923187,0.6216350793838501,0.005182147957384586,0.009791431948542595,0.14716529846191406,0,0,0
4202612583,d4:22:cd:00:30:92,0.3319500684738159,0.6435794830322266,-0.2986489534378052,0.6216380596160889,-0.01029421016573906,-0.014884398318827152,0.14776897430419922,0,0,0
4202629250,d4:22:cd:00:30:92,0.3319524824619293,0.6435422301292419,-0.2986448407173157,0.6216774582862854,-0.006998414173722267,-0.00603663781657815,0.1470499038696289,0,0,0
4202645917,d4:22:cd:00:30:92,0.3319432735443115,0.6435410976409912,-0.2986311912536621,0.6216900944709778,0.0004025049274787307,-0.00456949882209301,0.13475418090820312,0,0,0
4202662584,d4:22:cd:00:30:92,0.33193618059158325,0.6435344219207764,-0.29865366220474243,0.6216899156570435,0.0024414740037173033,-0.0038835376035422087,0.1431894302368164,0,0,0
4202679251,d4:22:cd:00:30:92,0.33192652463912964,0.6435098648071289,-0.2986283004283905,0.6217327117919922,-0.010356626473367214,0.006682590581476688,0.14026737213134766,0,0,0
4202695918,d4:22:cd:00:30:92,0.33199161291122437,0.6434599757194519,-0.29858702421188354,0.6217694878578186,0.0076247393153607845,0.007551832124590874,0.1501598358154297,0,0,0
4202712585,d4:22:cd:00:30:92,0.3320738673210144,0.6434034109115601,-0.29853355884552,0.6218097805976868,0.00045950073399581015,-0.010356025770306587,0.1306018829345703,0,0,0
4202729252,d4:22:cd:00:30:92,0.3321576714515686,0.6433462500572205,-0.2985285818576813,0.6218264102935791,-0.004817695822566748,-0.012349984608590603,0.13974285125732422,0,0,0
4202745919,d4:22:cd:00:30:92,0.3321652412414551,0.6433421969413757,-0.2985472083091736,0.6218177080154419,0.011068110354244709,-0.015284262597560883,0.16114044189453125,0,0,0
4202762586,d4:22:cd:00:30:92,0.3321864902973175,0.6433374285697937,-0.29852768778800964,0.6218206286430359,0.0005544518353417516,0.007728966418653727,0.13105010986328125,0,0,0
4202779253,d4:22:cd:00:30:92,0.33219021558761597,0.6433486938476562,-0.29848480224609375,0.6218275427818298,0.009935136884450912,0.006710417568683624,0.1435260772705078,0,0,0
4202795920,d4:22:cd:00:30:92,0.33222007751464844,0.6433385014533997,-0.2984623908996582,0.6218329071998596,0.0027989549562335014,-0.008030597120523453,0.14212512969970703,0,0,0
4202812587,d4:22:cd:00:30:92,0.3322634696960449,0.643314003944397,-0.29844313859939575,0.6218443512916565,0.000862885732203722,-0.0095265693962574,0.13824462890625,0,0,0
4202829254,d4:22:cd:00:30:92,0.33224576711654663,0.6433271169662476,-0.2984440326690674,0.6218396425247192,0.0006107631488703191,-0.0063852062448859215,0.15209674835205078,0,0,0
4202845921,d4:22:cd:00:30:92,0.3322833180427551,0.643348753452301,-0.2985091805458069,0.6217659115791321,0.010790004394948483,-0.0006547811790369451,0.1436138153076172,0,0,0
4202862588,d4:22:cd:00:30:92,0.33226481080055237,0.643358051776886,-0.2985156774520874,0.621763288974762,-0.019397670403122902,-0.010171068832278252,0.13831424713134766,0,0,0
4202879255,d4:22:cd:00:30:92,0.33223778009414673,0.6433485150337219,-0.2985132336616516,0.621788740158081,0.0060083214193582535,0.0006715446943417192,0.13918018341064453,0,0,0
4202895922,d4:22:cd:00:30:92,0.33221063017845154,0.6433541178703308,-0.2985098361968994,0.6217989921569824,0.012925446964800358,-0.0011734430445358157,0.14059162139892578,0,0,0
4202912589,d4:22:cd:00:30:92,0.33219486474990845,0.6433727145195007,-0.2985522150993347,0.6217678785324097,0.002713880268856883,-0.00024809938622638583,0.14382648468017578,0,0,0
4202929256,d4:22:cd:00:30:92,0.3321780562400818,0.6433658599853516,-0.29856806993484497,0.6217763423919678,-0.025873664766550064,-0.001296822214499116,0.1368112564086914,0,0,0
4202945923,d4:22:cd:00:30:92,0.33222439885139465,0.6433021426200867,-0.29853713512420654,0.6218323111534119,-0.002024384681135416,0.002811904763802886,0.15425968170166016,0,0,0
4202962590,d4:22:cd:00:30:92,0.3322587311267853,0.643271267414093,-0.29849833250045776,0.6218644976615906,-0.007769324351102114,0.018708927556872368,0.14905261993408203,0,0,0
4202979257,d4:22:cd:00:30:92,0.33232128620147705,0.6432587504386902,-0.2984766960144043,0.6218546032905579,-0.0016963096568360925,-0.013294885866343975,0.13951683044433594,0,0,0
4202995924,d4:22:cd:00:30:92,0.3323526680469513,0.6432486772537231,-0.2984679341316223,0.6218522787094116,-0.0017567839240655303,-0.008433702401816845,0.13470935821533203,0,0,0
4203012591,d4:22:cd:00:30:92,0.33236628770828247,0.6432467699050903,-0.2984656095504761,0.6218482255935669,0.008567935787141323,-0.010548694059252739,0.13635635375976562,0,0,0
4203029258,d4:22:cd:00:30:92,0.3323376774787903,0.643273651599884,-0.2984691858291626,0.6218338012695312,0.004036224912852049,-0.020023854449391365,0.14655303955078125,0,0,0
4203045925,d4:22:cd:00:30:92,0.3322506844997406,0.6433391571044922,-0.29849109053611755,0.6218022108078003,-0.009555555880069733,0.0013884624931961298,0.14322376251220703,0,0,0
4203062592,d4:22:cd:00:30:92,0.3321797549724579,0.6434010863304138,-0.29852041602134705,0.6217618584632874,0.0019032128620892763,-0.015582093968987465,0.1392822265625,0,0,0
4203079259,d4:22:cd:00:30:92,0.3321117162704468,0.643486499786377,-0.2985551953315735,0.6216930747032166,0.003168840892612934,-0.005512164905667305,0.14040279388427734,0,0,0
4203095926,d4:22:cd:00:30:92,0.3320872485637665,0.6435361504554749,-0.2985748052597046,0.6216455101966858,0.0011355435708537698,0.001103371731005609,0.1474008560180664,0,0,0
4203112593,d4:22:cd:00:30:92,0.3320487141609192,0.6435587406158447,-0.2985919117927551,0.6216344833374023,-0.001420243177562952,0.005899736192077398,0.14168548583984375,0,0,0
4203129260,d4:22:cd:00:30:92,0.3319910168647766,0.6435716152191162,-0.29858189821243286,0.6216566562652588,-0.010932745411992073,-0.0058901249431073666,0.13460731506347656,0,0,0
4203145927,d4:22:cd:00:30:92,0.33199989795684814,0.6435723304748535,-0.2986036539077759,0.621640682220459,0.009824455715715885,-0.007066250313073397,0.15463924407958984,0,0,0
4203162594,d4:22:cd:00:30:92,0.3320048749446869,0.6435920000076294,-0.2986200451850891,0.6216098070144653,0.0019531541038304567,-0.0006122019840404391,0.14260196685791016,0,0,0
4203179261,d4:22:cd:00:30:92,0.33198022842407227,0.643626868724823,-0.29862257838249207,0.6215856075286865,0.011619390919804573,-0.005158679094165564,0.14735031127929688,0,0,0
4203195928,d4:22:cd:00:30:92,0.3319130539894104,0.6436734795570374,-0.2985970973968506,0.6215854287147522,-0.013986127451062202,-0.005070950370281935,0.14459705352783203,0,0,0
4203212595,d4:22:cd:00:30:92,0.33189254999160767,0.6436719298362732,-0.2985934615135193,0.6215997934341431,-0.011263628490269184,0.0024598718155175447,0.14064788818359375,0,0,0
4203229262,d4:22:cd:00:30:92,0.3318564295768738,0.6436935067176819,-0.2985714375972748,0.6216074228286743,0.009667019359767437,0.002875605830922723,0.14557552337646484,0,0,0
4203245929,d4:22:cd:00:30:92,0.33184218406677246,0.6437074542045593,-0.2985497713088989,0.6216109395027161,-0.006113135255873203,0.003502895124256611,0.14240646362304688,0,0,0
4203262596,d4:22:cd:00:30:92,0.3318721354007721,0.6436890363693237,-0.29852181673049927,0.6216274499893188,-0.006951560266315937,0.012477834708988667,0.14974403381347656,0,0,0
4203279263,d4:22:cd:00:30:92,0.3319380283355713,0.6436731815338135,-0.2985037565231323,0.621617317199707,-0.0025337429251521826,-0.0022761442232877016,0.15157699584960938,0,0,0
4203295930,d4:22:cd:00:30:92,0.3319980502128601,0.6436673402786255,-0.29849594831466675,0.6215950846672058,0.017163503915071487,-0.00859563797712326,0.1320018768310547,0,0,0
4203312597,d4:22:cd:00:30:92,0.33196893334388733,0.6436919569969177,-0.2984963655471802,0.6215848326683044,-0.013328705914318562,-0.0141826793551445,0.15959453582763672,0,0,0
4203329264,d4:22:cd:00:30:92,0.3319455683231354,0.6436747908592224,-0.29849815368652344,0.6216143369674683,-0.004480065777897835,0.0053914678283035755,0.15055561065673828,0,0,0
4203345931,d4:22:cd:00:30:92,0.33196526765823364,0.6436590552330017,-0.29849833250045776,0.6216200590133667,0.013038195669651031,0.007818929851055145,0.13944339752197266,0,0,0
4203362598,d4:22:cd:00:30:92,0.33196720480918884,0.6436445116996765,-0.2984776496887207,0.6216439008712769,-0.005714388098567724,-0.004377277567982674,0.1441516876220703,0,0,0
4203379265,d4:22:cd:00:30:92,0.331947922706604,0.6436384916305542,-0.29845166206359863,0.6216729879379272,-0.0006490396917797625,-0.0005412366008386016,0.15052318572998047,0,0,0
4203395932,d4:22:cd:00:30:92,0.3319895267486572,0.643592357635498,-0.29841792583465576,0.62171471118927,-0.002869920339435339,0.014821143820881844,0.14789390563964844,0,0,0
4203412599,d4:22:cd:00:30:92,0.33208781480789185,0.6435149908065796,-0.2983873188495636,0.6217570900917053,-0.0005305499071255326,0.005789656192064285,0.14862060546875,0,0,0
4203429266,d4:22:cd:00:30:92,0.332182914018631,0.6434231996536255,-0.29834818840026855,0.6218199729919434,-0.008322658948600292,-0.0008715887670405209,0.14151954650878906,0,0,0
4203445933,d4:22:cd:00:30:92,0.3322293162345886,0.6433534622192383,-0.29830867052078247,0.6218863129615784,0.0009433503728359938,-0.012799134477972984,0.14720726013183594,0,0,0
4203462600,d4:22:cd:00:30:92,0.33225733041763306,0.6432899236679077,-0.29828816652297974,0.6219469904899597,-0.012341225519776344,0.0013358251890167594,0.13783836364746094,0,0,0
4203479267,d4:22:cd:00:30:92,0.3322531580924988,0.6432607173919678,-0.2982875108718872,0.6219797134399414,0.012733882293105125,-0.013521304354071617,0.14545440673828125,0,0,0
4203495934,d4:22:cd:00:30:92,0.33222496509552,0.6432636976242065,-0.298286110162735,0.6219922304153442,0.004328370094299316,-0.0009869214845821261,0.13978958129882812,0,0,0
4203512601,d4:22:cd:00:30:92,0.33222779631614685,0.6432422995567322,-0.29826125502586365,0.6220248937606812,-0.0010012262500822544,0.014908313751220703,0.14622211456298828,0,0,0
4203529268,d4:22:cd:00:30:92,0.33227768540382385,0.6432099938392639,-0.29823967814445496,0.6220419406890869,0.009888003580272198,-0.005429241340607405,0.15081501007080078,0,0,0
4203545935,d4:22:cd:00:30:92,0.3322889804840088,0.6431822180747986,-0.2982169985771179,0.622075617313385,-0.013738112524151802,-0.00791347585618496,0.16107845306396484,0,0,0
4203562602,d4:22:cd:00:30:92,0.3322659134864807,0.6431820392608643,-0.29822438955307007,0.6220845580101013,0.015645697712898254,-0.0026034789625555277,0.13597965240478516,0,0,0
4203579269,d4:22:cd:00:30:92,0.3321893513202667,0.6432436108589172,-0.29823577404022217,0.6220561861991882,-0.0009775059297680855,-0.010783941484987736,0.1502084732055664,0,0,0
4203595936,d4:22:cd:00:30:92,0.33216989040374756,0.6432619094848633,-0.29826557636260986,0.6220335364341736,0.0046015032567083836,0.002787094796076417,0.15015029907226562,0,0,0
4203612603,d4:22:cd:00:30:92,0.3322206735610962,0.6432401537895203,-0.29828202724456787,0.6220210194587708,-0.011030057445168495,0.022077267989516258,0.13550662994384766,0,0,0
4203629270,d4:22:cd:00:30:92,0.332324355840683,0.643182098865509,-0.29824304580688477,0.6220442056655884,0.004511078353971243,0.001902654068544507,0.14934635162353516,0,0,0
4203645937,d4:22:cd:00:30:92,0.33236318826675415,0.643147885799408,-0.2982081174850464,0.6220756769180298,0.004647840280085802,-0.009750417433679104,0.12277603149414062,0,0,0
4203662604,d4:22:cd:00:30:92,0.33235475420951843,0.6431482434272766,-0.2982127070426941,0.6220776438713074,0.007389505859464407,0.0001471832802053541,0.14786434173583984,0,0,0
4203679271,d4:22:cd:00:30:92,0.3323292136192322,0.6431664824485779,-0.29823338985443115,0.6220624446868896,0.017165236175060272,0.012701347470283508,0.14884662628173828,0,0,0
4203695938,d4:22:cd:00:30:92,0.3323156237602234,0.6431748270988464,-0.2982233166694641,0.6220659017562866,-0.008792930282652378,-0.0034767440520226955,0.13726139068603516,0,0,0
4203712605,d4:22:cd:00:30:92,0.33232221007347107,0.6431685090065002,-0.2982300817966461,0.6220657229423523,-0.001289376406930387,-0.004622471518814564,0.14330673217773438,0,0,0
4203729272,d4:22:cd:00:30:92,0.3322937786579132,0.643186092376709,-0.29824283719062805,0.6220566034317017,0.009538080543279648,-0.010272767394781113,0.14168262481689453,0,0,0
4203745939,d4:22:cd:00:30:92,0.3322449326515198,0.6432318091392517,-0.29826703667640686,0.6220237612724304,0.008945463225245476,0.0001650643243920058,0.14227962493896484,0,0,0
4203762606,d4:22:cd:00:30:92,0.33218100666999817,0.6432828307151794,-0.29830652475357056,0.6219863295555115,-0.007468573749065399,0.0020726355724036694,0.15830039978027344,0,0,0
4203779273,d4:22:cd:00:30:92,0.33213257789611816,0.643312931060791,-0.29832229018211365,0.62197345495224,0.00853368267416954,0.014535382390022278,0.14243125915527344,0,0,0
4203795940,d4:22:cd:00:30:92,0.3321036994457245,0.6433281302452087,-0.2983180284500122,0.621975302696228,-0.015789514407515526,-0.003173772245645523,0.1513376235961914,0,0,0
4203812607,d4:22:cd:00:30:92,0.3320997357368469,0.6433097124099731,-0.29830726981163025,0.6220016479492188,0.00621455442160368,-0.003331125248223543,0.13964080810546875,0,0,0
4203829274,d4:22:cd:00:30:92,0.3320472240447998,0.6433173418045044,-0.2983245253562927,0.622013509273529,0.006638795603066683,-0.013052038848400116,0.15774154663085938,0,0,0
4203845941,d4:22:cd:00:30:92,0.3319595456123352,0.6432970762252808,-0.2983585596084595,0.6220648288726807,0.007001571357250214,-0.01146979071199894,0.1379537582397461,0,0,0
4203862608,d4:22:cd:00:30:92,0.3319874405860901,0.6432597041130066,-0.2983511984348297,0.622092068195343,0.004186719190329313,0.022050000727176666,0.13871002197265625,0,0,0
4203879275,d4:22:cd:00:30:92,0.33207589387893677,0.6432173848152161,-0.29830628633499146,0.6221103072166443,-0.0033476233948022127,0.0007431805715896189,0.1511974334716797,0,0,0
4203895942,d4:22:cd:00:30:92,0.33218950033187866,0.6431258320808411,-0.29826006293296814,0.6221665143966675,0.004344365559518337,0.01180740725249052,0.1500568389892578,0,0,0
4203912609,d4:22:cd:00:30:92,0.33230721950531006,0.6430351734161377,-0.29822999238967896,0.6222116947174072,-0.006246278993785381,-0.0074371700175106525,0.1427011489868164,0,0,0
4203929276,d4:22:cd:00:30:92,0.3323260247707367,0.6429862380027771,-0.29822099208831787,0.6222563982009888,-0.007202900480479002,-0.011746387928724289,0.13997745513916016,0,0,0
4203945943,d4:22:cd:00:30:92,0.33231961727142334,0.6429606080055237,-0.29820358753204346,0.6222947239875793,0.008264363743364811,0.00806367676705122,0.14299964904785156,0,0,0
4203962610,d4:22:cd:00:30:92,0.3323044776916504,0.6429649591445923,-0.29820716381073,0.6222965121269226,0.015462961979210377,-0.0038538104854524136,0.13898468017578125,0,0,0
4203979277,d4:22:cd:00:30:92,0.33233898878097534,0.6429316401481628,-0.29821959137916565,0.6223067045211792,0.004618238657712936,0.006278479006141424,0.14175128936767578,0,0,0
4203995944,d4:22:cd:00:30:92,0.3324149250984192,0.642897367477417,-0.29819273948669434,0.6223145127296448,0.01618455909192562,0.00413756025955081,0.13939857482910156,0,0,0
4204012611,d4:22:cd:00:30:92,0.3324342370033264,0.642879068851471,-0.2981489896774292,0.6223440766334534,-0.0093147624284029,-0.000023133590730139986,0.13970184326171875,0,0,0
4204029278,d4:22:cd:00:30:92,0.3324825167655945,0.6428454518318176,-0.2981438636779785,0.6223553419113159,0.0026543419808149338,-0.006008363328874111,0.14584636688232422,0,0,0
4204045945,d4:22:cd:00:30:92,0.3324609100818634,0.6428476572036743,-0.2981513738632202,0.62236088514328,-0.00017515034414827824,-0.003305421443656087,0.145782470703125,0,0,0
4204062612,d4:22:cd:00:30:92,0.3324122428894043,0.6428528428077698,-0.29814404249191284,0.6223851442337036,-0.006056474521756172,0.007445998955518007,0.1415557861328125,0,0,0
4204079279,d4:22:cd:00:30:92,0.3323695957660675,0.6428406238555908,-0.29811370372772217,0.6224350333213806,-0.008756175637245178,-0.003891360480338335,0.15095901489257812,0,0,0
4204095946,d4:22:cd:00:30:92,0.33237332105636597,0.642831027507782,-0.29810911417007446,0.6224451661109924,0.007154020946472883,0.0025215614587068558,0.13416767120361328,0,0,0
4204112613,d4:22:cd:00:30:92,0.3324098587036133,0.6428114771842957,-0.2981097102165222,0.6224455237388611,0.0026631150394678116,0.004974839743226767,0.14715576171875,0,0,0
4204129280,d4:22:cd:00:30:92,0.3323661684989929,0.6428507566452026,-0.2981334328651428,0.6224169731140137,-0.0007545238477177918,-0.013075396418571472,0.1452951431274414,0,0,0
4204145947,d4:22:cd:00:30:92,0.33232980966567993,0.6428846120834351,-0.29813921451568604,0.6223986148834229,-0.0032424326054751873,0.009448450990021229,0.15605449676513672,0,0,0
4204162614,d4:22:cd:00:30:92,0.3323758840560913,0.6429034471511841,-0.2981215715408325,0.6223630309104919,0.003586907871067524,0.008725387044250965,0.1534748077392578,0,0,0
4204179281,d4:22:cd:00:30:92,0.332383930683136,0.6429102420806885,-0.2981237769126892,0.6223506331443787,-0.01526019349694252,-0.001239938079379499,0.15409564971923828,0,0,0
4204195948,d4:22:cd:00:30:92,0.3323518931865692,0.6429559588432312,-0.2982158958911896,0.6222764849662781,0.009530662558972836,-0.015358134172856808,0.13504791259765625,0,0,0
4204212615,d4:22:cd:00:30:92,0.33222153782844543,0.6430460810661316,-0.29829493165016174,0.6222149133682251,0.009401485323905945,0.009116311557590961,0.14112472534179688,0,0,0
4204229282,d4:22:cd:00:30:92,0.332111120223999,0.6431418657302856,-0.2983783483505249,0.6221349239349365,-0.0008641430176794529,0.00819387286901474,0.15044593811035156,0,0,0
4204245949,d4:22:cd:00:30:92,0.33203625679016113,0.6432138085365295,-0.29841509461402893,0.6220828294754028,-0.00025740309501998127,0.011723813600838184,0.1402292251586914,0,0,0
4204262616,d4:22:cd:00:30:92,0.33200013637542725,0.6432707905769348,-0.29842787981033325,0.6220372319221497,-0.009613711386919022,0.002146506682038307,0.1436634063720703,0,0,0
4204279283,d4:22:cd:00:30:92,0.33204323053359985,0.643252968788147,-0.2984158396720886,0.6220384240150452,0.00007961252413224429,0.01239435188472271,0.15899944305419922,0,0,0
4204295950,d4:22:cd:00:30:92,0.3320779800415039,0.6432368159294128,-0.29840171337127686,0.622043251991272,0.01202366966754198,-0.017629137262701988,0.13779830932617188,0,0,0
4204312617,d4:22:cd:00:30:92,0.33205583691596985,0.6432279944419861,-0.29841482639312744,0.6220577955245972,0.0020260331220924854,0.005007919389754534,0.15311527252197266,0,0,0
4204329284,d4:22:cd:00:30:92,0.3320639729499817,0.6432176828384399,-0.2984013557434082,0.6220706701278687,-0.003481493564322591,0.005147391464561224,0.14185047149658203,0,0,0
4204345951,d4:22:cd:00:30:92,0.33215540647506714,0.6431666612625122,-0.29836660623550415,0.6220912933349609,-0.006128864828497171,0.027852730825543404,0.15108871459960938,0,0,0
4204362618,d4:22:cd:00:30:92,0.3322795033454895,0.6431033611297607,-0.298298716545105,0.6221230030059814,-0.005578115116804838,-0.01217497419565916,0.14537906646728516,0,0,0
4204379285,d4:22:cd:00:30:92,0.3323417007923126,0.6430174112319946,-0.29823732376098633,0.6222079992294312,-0.015717962756752968,0.00004671420902013779,0.1407299041748047,0,0,0
4204395952,d4:22:cd:00:30:92,0.33238476514816284,0.6429276466369629,-0.2981688976287842,0.6223106384277344,-0.0028548610862344503,-0.0003301286487840116,0.13037490844726562,0,0,0
4204412619,d4:22:cd:00:30:92,0.33242055773735046,0.6428770422935486,-0.29811549186706543,0.6223694682121277,-0.00651538884267211,-0.0005500653642229736,0.15699291229248047,0,0,0
4204429286,d4:22:cd:00:30:92,0.3324524760246277,0.642851710319519,-0.29808759689331055,0.6223917603492737,0.002670812187716365,0.0016152163734659553,0.161041259765625,0,0,0
4204445953,d4:22:cd:00:30:92,0.33252114057540894,0.6428476572036743,-0.2980799078941345,0.6223629713058472,-0.013141290284693241,-0.009150173515081406,0.14811229705810547,0,0,0
4204462620,d4:22:cd:00:30:92,0.3325977027416229,0.6428219079971313,-0.29807502031326294,0.6223510503768921,0.0023847436532378197,-0.00791872851550579,0.1393756866455078,0,0,0
4204479287,d4:22:cd:00:30:92,0.3326573371887207,0.6427927017211914,-0.298064261674881,0.6223546266555786,-0.005960922688245773,0.003067938843742013,0.1484527587890625,0,0,0
4204495954,d4:22:cd:00:30:92,0.33268845081329346,0.6427327394485474,-0.29805654287338257,0.6224035620689392,-0.009003283455967903,0.0038980660028755665,0.13994503021240234,0,0,0
4204512621,d4:22:cd:00:30:92,0.33271434903144836,0.6426651477813721,-0.29807692766189575,0.6224497556686401,-0.004841094836592674,-0.012830761261284351,0.1467885971069336,0,0,0
4204529288,d4:22:cd:00:30:92,0.3326759934425354,0.642656683921814,-0.2980729937553406,0.6224808096885681,0.0024182985071092844,-0.008078875951468945,0.14403629302978516,0,0,0
4204545955,d4:22:cd:00:30:92,0.3326261043548584,0.6426687240600586,-0.2980806231498718,0.6224913001060486,0.00010836187720997259,-0.003966460935771465,0.14989662170410156,0,0,0
4204562622,d4:22:cd:00:30:92,0.33255112171173096,0.6426951885223389,-0.29808539152145386,0.6225019097328186,0.005778494291007519,-0.009269529022276402,0.14008808135986328,0,0,0
4204579289,d4:22:cd:00:30:92,0.3324819803237915,0.6427072882652283,-0.29810452461242676,0.6225171089172363,-0.0031724311411380768,0.012247168458998203,0.13424396514892578,0,0,0
4204595956,d4:22:cd:00:30:92,0.33240169286727905,0.6427434086799622,-0.2980894446372986,0.6225298047065735,-0.008035067468881607,-0.004820168484002352,0.13051795959472656,0,0,0
4204612623,d4:22:cd:00:30:92,0.33239585161209106,0.6427370309829712,-0.29804784059524536,0.6225595474243164,-0.010669181123375893,0.016242574900388718,0.14147663116455078,0,0,0
4204629290,d4:22:cd:00:30:92,0.33248695731163025,0.6426572799682617,-0.2979621887207031,0.6226342916488647,-0.016818707808852196,0.005512723699212074,0.15433883666992188,0,0,0
4204645957,d4:22:cd:00:30:92,0.3325948119163513,0.6426070928573608,-0.2978763282299042,0.6226695775985718,0.022804273292422295,0.0021867388859391212,0.15065479278564453,0,0,0
4204662624,d4:22:cd:00:30:92,0.33269351720809937,0.6425686478614807,-0.29784834384918213,0.6226696968078613,0.0025540965143591166,-0.0046172188594937325,0.13779258728027344,0,0,0
4204679291,d4:22:cd:00:30:92,0.3326997756958008,0.642605185508728,-0.2978658676147461,0.6226204633712769,0.016314895823597908,-0.008698789402842522,0.13652610778808594,0,0,0
4204695958,d4:22:cd:00:30:92,0.3326367139816284,0.6426778435707092,-0.2978968620300293,0.6225643157958984,0.0017638385761529207,0.0009450127836316824,0.13422584533691406,0,0,0
4204712625,d4:22:cd:00:30:92,0.33253535628318787,0.6427682042121887,-0.2979511320590973,0.6224989891052246,-0.004613921977579594,-0.005584024358540773,0.1475505828857422,0,0,0
4204729292,d4:22:cd:00:30:92,0.3324223458766937,0.6428583860397339,-0.29798734188079834,0.6224490404129028,-0.0016399704618379474,0.0037232788745313883,0.15657901763916016,0,0,0
4204745959,d4:22:cd:00:30:92,0.3323638439178467,0.6429259181022644,-0.2980412244796753,0.622384786605835,0.0007482515065930784,0.004767643287777901,0.13063335418701172,0,0,0
4204762626,d4:22:cd:00:30:92,0.33225834369659424,0.6430088877677917,-0.2980673313140869,0.6223428249359131,-0.012081727385520935,0.010993149131536484,0.15282726287841797,0,0,0
4204779293,d4:22:cd:00:30:92,0.3322342038154602,0.6430292129516602,-0.2981181740760803,0.6223103404045105,0.002993690548464656,0.0030852609779685736,0.1406993865966797,0,0,0
4204795960,d4:22:cd:00:30:92,0.3321937322616577,0.64305180311203,-0.29813146591186523,0.622302234172821,0.005575446877628565,0.014081763103604317,0.16373825073242188,0,0,0
4204812627,d4:22:cd:00:30:92,0.3321900963783264,0.6430753469467163,-0.29811030626296997,0.6222899556159973,0.00808788649737835,0.0009885977488011122,0.1427450180053711,0,0,0
4204829294,d4:22:cd:00:30:92,0.33222275972366333,0.6431106925010681,-0.29808756709098816,0.6222469210624695,0.007547697052359581,0.010969121940433979,0.13778972625732422,0,0,0
4204845961,d4:22:cd:00:30:92,0.33235883712768555,0.6430882811546326,-0.2980070114135742,0.6222360730171204,-0.013160163536667824,0.020721551030874252,0.14891910552978516,0,0,0
4204862628,d4:22:cd:00:30:92,0.33255311846733093,0.6430685520172119,-0.29784780740737915,0.622228741645813,-0.00332597061060369,-0.0008283390197902918,0.13775157928466797,0,0,0
4204879295,d4:22:cd:00:30:92,0.33267855644226074,0.643028199672699,-0.297745019197464,0.6222527027130127,0.0029823752120137215,-0.009312108159065247,0.13326454162597656,0,0,0
4204895962,d4:22:cd:00:30:92,0.332669734954834,0.6430330276489258,-0.2977343797683716,0.62225741147995,0.003411701647564769,-0.012169498018920422,0.14333534240722656,0,0,0
4204912629,d4:22:cd:00:30:92,0.3326241075992584,0.6430732011795044,-0.2977524995803833,0.6222315430641174,0.00595075311139226,-0.0071254814974963665,0.14223384857177734,0,0,0
4204929296,d4:22:cd:00:30:92,0.3325953781604767,0.6431342363357544,-0.297788143157959,0.6221668720245361,0.009715870954096317,0.0004734004323836416,0.15224647521972656,0,0,0
4204945963,d4:22:cd:00:30:92,0.33263397216796875,0.6431567072868347,-0.2978053092956543,0.6221147775650024,-0.01038682833313942,0.016459718346595764,0.13249683380126953,0,0,0
4204962630,d4:22:cd:00:30:92,0.33267703652381897,0.6431494355201721,-0.29777616262435913,0.6221132278442383,0.008007616735994816,-0.004345203749835491,0.1331195831298828,0,0,0
4204979297,d4:22:cd:00:30:92,0.33266302943229675,0.6431548595428467,-0.29776617884635925,0.6221199631690979,0.002692451002076268,-0.011117422953248024,0.14135265350341797,0,0,0
4204995964,d4:22:cd:00:30:92,0.3326345682144165,0.6431947350502014,-0.29776617884635925,0.622093915939331,0.012087413109838963,0.010827973484992981,0.14410400390625,0,0,0
4205012631,d4:22:cd:00:30:92,0.3326047658920288,0.6432306170463562,-0.2978005111217499,0.6220563650131226,0.007356342393904924,-0.001828000764362514,0.1394786834716797,0,0,0
4205029298,d4:22:cd:00:30:92,0.3326230049133301,0.6432532668113708,-0.29780113697052,0.6220228672027588,-0.0006691000307910144,0.004665832966566086,0.12757205963134766,0,0,0
4205045965,d4:22:cd:00:30:92,0.3327174484729767,0.6432284712791443,-0.29780083894729614,0.6219981908798218,0.0026898805517703295,0.0019455684814602137,0.13900375366210938,0,0,0
4205062632,d4:22:cd:00:30:92,0.3328095078468323,0.6431954503059387,-0.29777097702026367,0.6219972968101501,-0.0027614745777100325,0.006553846877068281,0.15604209899902344,0,0,0
4205079299,d4:22:cd:00:30:92,0.33298200368881226,0.6431582570075989,-0.2977638244628906,0.6219469308853149,0.1098039373755455,-0.022217635065317154,0.11890411376953125,0,0,0
4205095966,d4:22:cd:00:30:92,0.3332637846469879,0.6431108713150024,-0.29788491129875183,0.6217868328094482,-0.14578460156917572,0.001384215778671205,0.15641212463378906,0,0,0
4205112633,d4:22:cd:00:30:92,0.33325785398483276,0.6430917978286743,-0.29788029193878174,0.6218119859695435,-0.02218831330537796,-0.0011634966358542442,0.15937423706054688,0,0,0
4205129300,d4:22:cd:00:30:92,0.33320295810699463,0.643049418926239,-0.2978917062282562,0.6218798756599426,0.018129372969269753,-0.003930586855858564,0.14075374603271484,0,0,0
4205145967,d4:22:cd:00:30:92,0.33320337533950806,0.6430567502975464,-0.2979242205619812,0.6218565702438354,-0.004142826423048973,0.006538871675729752,0.14022350311279297,0,0,0
4205162634,d4:22:cd:00:30:92,0.3332379460334778,0.6430414319038391,-0.2978975176811218,0.6218665242195129,-0.0043504140339791775,0.012856800109148026,0.14332008361816406,0,0,0
4205179301,d4:22:cd:00:30:92,0.33330798149108887,0.6430159211158752,-0.2978822588920593,0.6218627691268921,-0.0032657478004693985,0.0002605043409857899,0.15627002716064453,0,0,0
4205195968,d4:22:cd:00:30:92,0.3333428204059601,0.6429843306541443,-0.2978464961051941,0.6218936443328857,0.006735926028341055,0.004986238665878773,0.15519332885742188,0,0,0
4205212635,d4:22:cd:00:30:92,0.33337128162384033,0.6429667472839355,-0.2978273630142212,0.6219059228897095,-0.0005557230324484408,-0.014549575746059418,0.14089107513427734,0,0,0
4205229302,d4:22:cd:00:30:92,0.3333514928817749,0.6429474949836731,-0.2978076934814453,0.6219459772109985,-0.01215914636850357,-0.011260136030614376,0.15618610382080078,0,0,0
4205245969,d4:22:cd:00:30:92,0.3333098888397217,0.6429256796836853,-0.2978227138519287,0.6219834089279175,-0.00840640626847744,-0.0035739722661674023,0.15169048309326172,0,0,0
4205262636,d4:22:cd:00:30:92,0.3332716226577759,0.6429048776626587,-0.2978271245956421,0.6220234036445618,-0.00822825264185667,0.009797913953661919,0.15061569213867188,0,0,0
4205279303,d4:22:cd:00:30:92,0.33331412076950073,0.6428696513175964,-0.29780781269073486,0.6220464110374451,0.002718336647376418,0.012865293771028519,0.1475086212158203,0,0,0
4205295970,d4:22:cd:00:30:92,0.3334208130836487,0.6428321599960327,-0.2977758049964905,0.622043251991272,-0.006738915573805571,-0.007167948875576258,0.1271829605102539,0,0,0
4205312637,d4:22:cd:00:30:92,0.3335186243057251,0.6427921056747437,-0.2977253198623657,0.6220564246177673,-0.0010230886982753873,0.0020698418375104666,0.14133548736572266,0,0,0
4205329304,d4:22:cd:00:30:92,0.3335276246070862,0.6427854299545288,-0.297698438167572,0.6220712661743164,0.00030781925306655467,-0.004335480742156506,0.14927005767822266,0,0,0
4205345971,d4:22:cd:00:30:92,0.3334736227989197,0.6427896022796631,-0.29769110679626465,0.6220995187759399,0.0014864589320495725,-0.02530289627611637,0.14119338989257812,0,0,0
4205362638,d4:22:cd:00:30:92,0.3334178328514099,0.6428096294403076,-0.2977166175842285,0.6220963001251221,-0.004500265698879957,0.003635214641690254,0.1531972885131836,0,0,0
4205379305,d4:22:cd:00:30:92,0.3333808183670044,0.6428467035293579,-0.2977321147918701,0.6220705509185791,0.004793556407094002,0.009274446405470371,0.14202213287353516,0,0,0
4205395972,d4:22:cd:00:30:92,0.33341914415359497,0.6428316235542297,-0.29771190881729126,0.6220751404762268,0.002645946340635419,0.020723674446344376,0.15208053588867188,0,0,0
4205412639,d4:22:cd:00:30:92,0.33345285058021545,0.6428319215774536,-0.2977103888988495,0.6220575571060181,-0.0014944076538085938,-0.012195649556815624,0.13292312622070312,0,0,0
4205429306,d4:22:cd:00:30:92,0.33345162868499756,0.6428437829017639,-0.2977195382118225,0.622041642665863,0.002069758018478751,0.010127930901944637,0.15404891967773438,0,0,0
4205445973,d4:22:cd:00:30:92,0.33345550298690796,0.6428410410881042,-0.29775041341781616,0.6220275163650513,-0.0060065751895308495,0.007353017572313547,0.14294719696044922,0,0,0
4205462640,d4:22:cd:00:30:92,0.3334328532218933,0.6428413391113281,-0.29775184392929077,0.6220386028289795,-0.009139612317085266,0.0018094491679221392,0.14629268646240234,0,0,0
4205479307,d4:22:cd:00:30:92,0.3333863615989685,0.642853856086731,-0.2977536916732788,0.6220499873161316,0.004768718965351582,0.003986688796430826,0.1404571533203125,0,0,0
4205495974,d4:22:cd:00:30:92,0.3333050608634949,0.6429106593132019,-0.2977287769317627,0.6220465302467346,0.003059487324208021,-0.0018105667550116777,0.14189815521240234,0,0,0
4205512641,d4:22:cd:00:30:92,0.3332604467868805,0.6429650783538818,-0.2977498173713684,0.6220041513442993,-0.0031179918441921473,-0.00271266489289701,0.13530540466308594,0,0,0
4205529308,d4:22:cd:00:30:92,0.333251029253006,0.6429933905601501,-0.29778194427490234,0.6219645142555237,-0.008819527924060822,0.004319499712437391,0.15141582489013672,0,0,0
4205545975,d4:22:cd:00:30:92,0.3332926630973816,0.6429709196090698,-0.2977677583694458,0.6219722032546997,-0.022270845249295235,0.01277901791036129,0.15918540954589844,0,0,0
4205562642,d4:22:cd:00:30:92,0.33338308334350586,0.6429161429405212,-0.29774218797683716,0.6219926476478577,-0.005087657831609249,0.003560673212632537,0.13968944549560547,0,0,0
4205579309,d4:22:cd:00:30:92,0.3334130644798279,0.6428890228271484,-0.2977113425731659,0.6220194101333618,0.0025176778435707092,-0.008992261253297329,0.1557445526123047,0,0,0
4205595976,d4:22:cd:00:30:92,0.3333876132965088,0.6429356932640076,-0.29771894216537476,0.6219812035560608,-0.0031099452171474695,-0.005272670648992062,0.13662242889404297,0,0,0
4205612643,d4:22:cd:00:30:92,0.333339661359787,0.6429608464241028,-0.2977421283721924,0.6219697594642639,-0.011219707317650318,0.0018334768246859312,0.1405181884765625,0,0,0
4205629310,d4:22:cd:00:30:92,0.33333975076675415,0.6429697871208191,-0.297757089138031,0.6219533681869507,0.00048295562737621367,0.016883721575140953,0.13643741607666016,0,0,0
4205645977,d4:22:cd:00:30:92,0.3334183692932129,0.6429370045661926,-0.297760933637619,0.6219432950019836,0.0022658207453787327,0.00859709084033966,0.13852405548095703,0,0,0
4205662644,d4:22:cd:00:30:92,0.33347272872924805,0.6429163217544556,-0.29774028062820435,0.621945321559906,0.0032893423922359943,-0.0017030569724738598,0.14228534698486328,0,0,0
4205679311,d4:22:cd:00:30:92,0.3335004448890686,0.6428954601287842,-0.2977306544780731,0.6219567656517029,0.0011801205109804869,-0.0021275081671774387,0.14821910858154297,0,0,0
4205695978,d4:22:cd:00:30:92,0.3334551453590393,0.6428906917572021,-0.2977481484413147,0.6219775080680847,-0.005724669899791479,0.004436285234987736,0.13748931884765625,0,0,0
4205712645,d4:22:cd:00:30:92,0.33339792490005493,0.6428818106651306,-0.2977580428123474,0.6220126152038574,0.0028275647200644016,0.015127133578062057,0.13303565979003906,0,0,0
4205729312,d4:22:cd:00:30:92,0.33339059352874756,0.6428713202476501,-0.29775694012641907,0.6220278739929199,0.004100834019482136,0.00405262503772974,0.14441394805908203,0,0,0
4205745979,d4:22:cd:00:30:92,0.33344995975494385,0.6428707242012024,-0.2977532744407654,0.6219984292984009,-0.0044593350030481815,-0.0016632716869935393,0.14216041564941406,0,0,0
4205762646,d4:22:cd:00:30:92,0.3334943652153015,0.6428849697113037,-0.2977198362350464,0.6219760179519653,0.004934774711728096,-0.005935945548117161,0.14264202117919922,0,0,0
4205779313,d4:22:cd:00:30:92,0.3335287868976593,0.6429233551025391,-0.2977202534675598,0.6219174861907959,-0.0028190850280225277,-0.007688733749091625,0.14793014526367188,0,0,0
4205795980,d4:22:cd:00:30:92,0.3334678113460541,0.6429367065429688,-0.29773977398872375,0.6219272017478943,-0.0015437480760738254,-0.0056793526746332645,0.14581871032714844,0,0,0
4205812647,d4:22:cd:00:30:92,0.3333978056907654,0.6429497003555298,-0.29775452613830566,0.6219441890716553,0.0050740232691168785,0.005165272857993841,0.15077972412109375,0,0,0
4205829314,d4:22:cd:00:30:92,0.33337080478668213,0.6429600119590759,-0.2977633476257324,0.6219437718391418,-0.004726055543869734,0.006505121011286974,0.14153003692626953,0,0,0
4205845981,d4:22:cd:00:30:92,0.3333946764469147,0.6429844498634338,-0.2977712154388428,0.6219019889831543,-0.00849283579736948,-0.0033715812023729086,0.1379556655883789,0,0,0
4205862648,d4:22:cd:00:30:92,0.3333709239959717,0.6430078744888306,-0.29778116941452026,0.6218857169151306,-0.004193256609141827,-0.003954279236495495,0.14520645141601562,0,0,0
4205879315,d4:22:cd:00:30:92,0.3333285450935364,0.6430072784423828,-0.2978282570838928,0.6218864321708679,-0.0016512718284502625,-0.012263932265341282,0.13528728485107422,0,0,0
4205895982,d4:22:cd:00:30:92,0.3332943320274353,0.643005907535553,-0.29783034324645996,0.6219053268432617,-0.00515929376706481,0.011574506759643555,0.1315937042236328,0,0,0
4205912649,d4:22:cd:00:30:92,0.3332819938659668,0.6430178284645081,-0.2978566288948059,0.6218869090080261,0.00796250905841589,-0.0010374353732913733,0.1433401107788086,0,0,0
4205929316,d4:22:cd:00:30:92,0.33324313163757324,0.6430341601371765,-0.29790014028549194,0.6218700408935547,0.011774537153542042,-0.009923416189849377,0.14194965362548828,0,0,0
4205945983,d4:22:cd:00:30:92,0.3332231938838959,0.6430333852767944,-0.2979421019554138,0.621861457824707,-0.013787326402962208,0.005569272208958864,0.14848709106445312,0,0,0
4205962650,d4:22:cd:00:30:92,0.3332044184207916,0.6430360078811646,-0.2979660928249359,0.6218572854995728,-0.010448937304317951,0.011578865349292755,0.1466226577758789,0,0,0
4205979317,d4:22:cd:00:30:92,0.3332211375236511,0.6430135369300842,-0.29794615507125854,0.6218810677528381,-0.00801808014512062,0.0022007084917277098,0.15314483642578125,0,0,0
4205995984,d4:22:cd:00:30:92,0.3332478404045105,0.6430071592330933,-0.297934889793396,0.6218788027763367,0.0015578713500872254,0.01020850706845522,0.1539926528930664,0,0,0
4206012651,d4:22:cd:00:30:92,0.333252489566803,0.642983078956604,-0.29792776703834534,0.6219045519828796,-0.011163732036948204,-0.00003665612530312501,0.14029693603515625,0,0,0
4206029318,d4:22:cd:00:30:92,0.33327516913414,0.6429576873779297,-0.2978960871696472,0.6219337582588196,0.00918492954224348,0.0020839229691773653,0.14580345153808594,0,0,0
4206045985,d4:22:cd:00:30:92,0.33335554599761963,0.6429224610328674,-0.2978776693344116,0.621936023235321,0.0038416290190070868,-0.0007058539194986224,0.1483755111694336,0,0,0
4206062652,d4:22:cd:00:30:92,0.33342528343200684,0.6428670287132263,-0.2978513240814209,0.6219685077667236,-0.006928566377609968,-0.0036029170732945204,0.14720821380615234,0,0,0
4206079319,d4:22:cd:00:30:92,0.33349525928497314,0.6428340077400208,-0.2978304326534271,0.621975302696228,0.010337739251554012,-0.0036734354216605425,0.14883804321289062,0,0,0
4206095986,d4:22:cd:00:30:92,0.33352601528167725,0.6428465843200684,-0.29782459139823914,0.6219485998153687,0.002868718933314085,-0.004750991240143776,0.15394306182861328,0,0,0
4206112653,d4:22:cd:00:30:92,0.3334704637527466,0.6428672075271606,-0.2978573143482208,0.6219413876533508,-0.015132400207221508,-0.002237476408481598,0.13375091552734375,0,0,0
4206129320,d4:22:cd:00:30:92,0.33339694142341614,0.642889678478241,-0.2978394031524658,0.6219660639762878,-0.0004432401619851589,0.0015978941228240728,0.15190887451171875,0,0,0
4206145987,d4:22:cd:00:30:92,0.3333978056907654,0.6428906917572021,-0.29782402515411377,0.6219720244407654,-0.002942422404885292,0.002934948541224003,0.13501644134521484,0,0,0
4206162654,d4:22:cd:00:30:92,0.33340945839881897,0.6428793668746948,-0.29778021574020386,0.6219981908798218,-0.0015384256839752197,0.006351791322231293,0.12535667419433594,0,0,0
4206179321,d4:22:cd:00:30:92,0.3333970308303833,0.6429009437561035,-0.2978089451789856,0.6219688653945923,-0.009714753367006779,-0.009956496767699718,0.14327335357666016,0,0,0
4206195988,d4:22:cd:00:30:92,0.333307683467865,0.6429309844970703,-0.29783087968826294,0.6219754219055176,-0.015731483697891235,-0.013538403436541557,0.15021419525146484,0,0,0
4206212655,d4:22:cd:00:30:92,0.33330148458480835,0.6429293751716614,-0.2978338599205017,0.6219788789749146,-0.004262573551386595,0.005743053741753101,0.15541839599609375,0,0,0
4206229322,d4:22:cd:00:30:92,0.33335256576538086,0.642913281917572,-0.29780900478363037,0.6219800710678101,-0.010676780715584755,0.002697242656722665,0.14129352569580078,0,0,0
4206245989,d4:22:cd:00:30:92,0.3334093689918518,0.6429060101509094,-0.2977864742279053,0.6219678521156311,-0.007106720004230738,0.007456503808498383,0.14558792114257812,0,0,0
4206262656,d4:22:cd:00:30:92,0.3334686756134033,0.6429014205932617,-0.29774361848831177,0.6219613552093506,-0.002113342983648181,0.007771433796733618,0.14031505584716797,0,0,0
4206279323,d4:22:cd:00:30:92,0.3335251212120056,0.6428884267807007,-0.29774028062820435,0.6219460964202881,-0.0019053221913054585,-0.002730769570916891,0.14591407775878906,0,0,0
4206295990,d4:22:cd:00:30:92,0.3335420489311218,0.6428812742233276,-0.29772043228149414,0.6219539046287537,0.0010966663248836994,-0.015809407457709312,0.13266468048095703,0,0,0
4206312657,d4:22:cd:00:30:92,0.33349913358688354,0.6429070830345154,-0.29772183299064636,0.6219495534896851,-0.014613738283514977,-0.013477831147611141,0.14615726470947266,0,0,0
4206329324,d4:22:cd:00:30:92,0.3334457576274872,0.6429490447044373,-0.29774510860443115,0.6219238042831421,0.009244873188436031,-0.002998873358592391,0.13844680786132812,0,0,0
4206345991,d4:22:cd:00:30:92,0.3334066867828369,0.6430009007453918,-0.29777881503105164,0.6218749284744263,-0.011568066664040089,0.009346306324005127,0.14302921295166016,0,0,0
4206362658,d4:22:cd:00:30:92,0.33343225717544556,0.6430081129074097,-0.2977609634399414,0.6218621730804443,0.015857085585594177,0.010135418735444546,0.14579200744628906,0,0,0
4206379325,d4:22:cd:00:30:92,0.333454966545105,0.6430181860923767,-0.29774725437164307,0.6218461990356445,-0.0056242565624415874,0.001786315580829978,0.144927978515625,0,0,0
4206395992,d4:22:cd:00:30:92,0.3334773778915405,0.6430054903030396,-0.2977287769317627,0.621856153011322,0.0103831822052598,0.0003710314922500402,0.14246368408203125,0,0,0
4206412659,d4:22:cd:00:30:92,0.3334369957447052,0.6430533528327942,-0.29771798849105835,0.6218334436416626,-0.012085219845175743,0.003200146835297346,0.13964271545410156,0,0,0
4206429326,d4:22:cd:00:30:92,0.33341729640960693,0.6430691480636597,-0.29773157835006714,0.6218213438987732,0.006537111476063728,-0.000889916846062988,0.14441967010498047,0,0,0
4206445993,d4:22:cd:00:30:92,0.33335500955581665,0.6431010961532593,-0.29775547981262207,0.6218101978302002,0.0010721217840909958,-0.012847189791500568,0.1534585952758789,0,0,0
4206462660,d4:22:cd:00:30:92,0.3333331048488617,0.6431443691253662,-0.2977812886238098,0.6217648386955261,0.005817134398967028,0.008264279924333096,0.13189697265625,0,0,0
4206479327,d4:22:cd:00:30:92,0.33334529399871826,0.6431584358215332,-0.29781022667884827,0.6217297911643982,-0.00773822795599699,-0.007720919791609049,0.146759033203125,0,0,0
4206495994,d4:22:cd:00:30:92,0.33333760499954224,0.6431736946105957,-0.2978214919567108,0.6217129826545715,0.0016558957286179066,0.011899382807314396,0.14108562469482422,0,0,0
4206512661,d4:22:cd:00:30:92,0.3333325982093811,0.6431889533996582,-0.29782164096832275,0.6216996908187866,0.007057016249746084,-0.003705285955220461,0.14757633209228516,0,0,0
4206529328,d4:22:cd:00:30:92,0.3333100974559784,0.6432126760482788,-0.297813355922699,0.621691107749939,-0.012491719797253609,-0.006713546812534332,0.1518688201904297,0,0,0
4206545995,d4:22:cd:00:30:92,0.3333188593387604,0.6432034373283386,-0.29783952236175537,0.6216833591461182,0.008247893303632736,-0.005016860086470842,0.1364736557006836,0,0,0
4206562662,d4:22:cd:00:30:92,0.3333367109298706,0.643195390701294,-0.2978541851043701,0.6216751933097839,-0.0027229466941207647,-0.002541677560657263,0.1452341079711914,0,0,0
4206579329,d4:22:cd:00:30:92,0.3333370089530945,0.643183171749115,-0.2978522777557373,0.6216886043548584,0.005608582869172096,-0.007463768124580383,0.15051555633544922,0,0,0
4206595996,d4:22:cd:00:30:92,0.3333842158317566,0.6431722044944763,-0.29782766103744507,0.6216863393783569,0.008962981402873993,0.0023653258103877306,0.1394672393798828,0,0,0
4206612663,d4:22:cd:00:30:92,0.33343321084976196,0.6431534290313721,-0.29781508445739746,0.6216855049133301,0.0004944665124639869,-0.002499657217413187,0.1325216293334961,0,0,0
4206629330,d4:22:cd:00:30:92,0.33347970247268677,0.6431143283843994,-0.2978058457374573,0.6217054128646851,0.0024775993078947067,0.014111937023699284,0.13989925384521484,0,0,0
4206645997,d4:22:cd:00:30:92,0.3334636092185974,0.6431214213371277,-0.29782283306121826,0.6216985583305359,-0.0013884904328733683,-0.002201379043981433,0.1401233673095703,0,0,0
4206662664,d4:22:cd:00:30:92,0.3333582580089569,0.6431633830070496,-0.2978527545928955,0.6216973662376404,0.01862001232802868,-0.005748976953327656,0.14932823181152344,0,0,0
4206679331,d4:22:cd:00:30:92,0.33330321311950684,0.6431979537010193,-0.2978512644767761,0.6216917634010315,-0.0014743193751201034,0.016573037952184677,0.15111446380615234,0,0,0
4206695998,d4:22:cd:00:30:92,0.33338963985443115,0.6432176232337952,-0.29784607887268066,0.6216275095939636,-0.03282403573393822,-0.043246738612651825,0.1646280288696289,0,0,0
4206712665,d4:22:cd:00:30:92,0.33349642157554626,0.6431785225868225,-0.29791224002838135,0.6215790510177612,0.0054004499688744545,0.026964714750647545,0.12484169006347656,0,0,0
4206729332,d4:22:cd:00:30:92,0.3334518074989319,0.6431970596313477,-0.29793572425842285,0.6215725541114807,-0.01513635367155075,-0.02253379300236702,0.1576671600341797,0,0,0
4206745999,d4:22:cd:00:30:92,0.3334052860736847,0.6431640982627869,-0.29795050621032715,0.6216247081756592,-0.006498038303107023,-0.005667282734066248,0.14817333221435547,0,0,0
4206762666,d4:22:cd:00:30:92,0.33345597982406616,0.6430970430374146,-0.2979409992694855,0.6216713786125183,-0.008809106424450874,-0.006460977252572775,0.14942264556884766,0,0,0
4206779333,d4:22:cd:00:30:92,0.3335303068161011,0.643053412437439,-0.297914981842041,0.6216890215873718,0.011518293060362339,0.00045786629198119044,0.13312149047851562,0,0,0
4206796000,d4:22:cd:00:30:92,0.33358266949653625,0.6430296301841736,-0.29790884256362915,0.6216884851455688,0.011219051666557789,-0.001661148271523416,0.1298847198486328,0,0,0
4206812667,d4:22:cd:00:30:92,0.33359766006469727,0.643027126789093,-0.2979031801223755,0.6216859221458435,-0.0029980631079524755,-0.0022410526871681213,0.1372852325439453,0,0,0
4206829334,d4:22:cd:00:30:92,0.33361250162124634,0.6430094838142395,-0.2979001998901367,0.6216974854469299,-0.0044533140026032925,0.009621897712349892,0.15341854095458984,0,0,0
4206846001,d4:22:cd:00:30:92,0.3336584270000458,0.6429747343063354,-0.2978840470314026,0.6217164993286133,0.0032757080625742674,-0.010128154419362545,0.14787006378173828,0,0,0
4206862668,d4:22:cd:00:30:92,0.33370253443717957,0.6429505944252014,-0.2978879511356354,0.6217159628868103,0.0052377465181052685,-0.005245625507086515,0.14728736877441406,0,0,0
4206879335,d4:22:cd:00:30:92,0.33366650342941284,0.6429710984230042,-0.29790157079696655,0.621707558631897,-0.008804775774478912,-0.012708723545074463,0.14120197296142578,0,0,0
4206896002,d4:22:cd:00:30:92,0.33362847566604614,0.6429693698883057,-0.2978949248790741,0.621732771396637,-0.003782663494348526,0.01654219441115856,0.1409473419189453,0,0,0
4206912669,d4:22:cd:00:30:92,0.3336051106452942,0.6429650783538818,-0.29787909984588623,0.6217573881149292,-0.0027577029541134834,-0.005675776395946741,0.13544940948486328,0,0,0
4206929336,d4:22:cd:00:30:92,0.3336167335510254,0.6429519653320312,-0.29787683486938477,0.6217657327651978,-0.007809794042259455,0.008113296702504158,0.14483356475830078,0,0,0
4206946003,d4:22:cd:00:30:92,0.3336198329925537,0.6429485082626343,-0.29788994789123535,0.6217614412307739,0.0023800078779459,-0.008685937151312828,0.13971710205078125,0,0,0
4206962670,d4:22:cd:00:30:92,0.3336280286312103,0.6429654359817505,-0.2978925108909607,0.6217383146286011,0.004090007860213518,0.005903983023017645,0.1444864273071289,0,0,0
4206979337,d4:22:cd:00:30:92,0.33363083004951477,0.6429824829101562,-0.2979048788547516,0.6217134594917297,0.0029004996176809072,-0.0073223961517214775,0.13779830932617188,0,0,0
4206996004,d4:22:cd:00:30:92,0.33359938859939575,0.6429970264434814,-0.2978963851928711,0.6217193007469177,-0.002593225333839655,-0.005367663688957691,0.1532754898071289,0,0,0
4207012671,d4:22:cd:00:30:92,0.33354824781417847,0.6430234313011169,-0.2978522777557373,0.6217405200004578,-0.008283487521111965,0.001592082786373794,0.13516902923583984,0,0,0
4207029338,d4:22:cd:00:30:92,0.33348363637924194,0.6430544257164001,-0.29786521196365356,0.6217369437217712,0.02225271239876747,-0.008672414347529411,0.14215373992919922,0,0,0
4207046005,d4:22:cd:00:30:92,0.33335548639297485,0.6431196331977844,-0.2979332506656647,0.6217055916786194,-0.005262444727122784,-0.01616591028869152,0.14014244079589844,0,0,0
4207062672,d4:22:cd:00:30:92,0.3332226276397705,0.6431745886802673,-0.29800933599472046,0.6216834783554077,0.0033914458472281694,0.0002207190409535542,0.14604854583740234,0,0,0
4207079339,d4:22:cd:00:30:92,0.3331547975540161,0.6432268023490906,-0.2980729341506958,0.621635377407074,-0.0022929494734853506,0.01452487800270319,0.1536417007446289,0,0,0
4207096006,d4:22:cd:00:30:92,0.3331356644630432,0.643275797367096,-0.2981302738189697,0.6215673685073853,0.008162581361830235,-0.008461195044219494,0.1392221450805664,0,0,0
4207112673,d4:22:cd:00:30:92,0.3331184387207031,0.6433313488960266,-0.29818612337112427,0.6214923858642578,-0.0006627997499890625,-0.006771883927285671,0.143096923828125,0,0,0
4207129340,d4:22:cd:00:30:92,0.3330540359020233,0.6433809399604797,-0.2982254922389984,0.6214565634727478,-0.0154268778860569,-0.002068612491711974,0.14195728302001953,0,0,0
4207146007,d4:22:cd:00:30:92,0.33300289511680603,0.6434149742126465,-0.29828783869743347,0.621418833732605,0.00015982573677320033,-0.00004179692405159585,0.14618396759033203,0,0,0
4207162674,d4:22:cd:00:30:92,0.33298778533935547,0.6434192657470703,-0.29831746220588684,0.6214082837104797,-0.00783338863402605,0.01270514726638794,0.1521139144897461,0,0,0
4207179341,d4:22:cd:00:30:92,0.3330286145210266,0.643414318561554,-0.2983112931251526,0.6213943958282471,0.00977823045104742,-0.001926011173054576,0.13920974731445312,0,0,0
4207196008,d4:22:cd:00:30:92,0.3330498933792114,0.6433956623077393,-0.2983313202857971,0.6213928461074829,-0.007078040856868029,-0.0037921208422631025,0.14878559112548828,0,0,0
4207212675,d4:22:cd:00:30:92,0.33305177092552185,0.6433619260787964,-0.2983280420303345,0.6214282512664795,0.008348404429852962,0.0025121739599853754,0.13311767578125,0,0,0
4207229342,d4:22:cd:00:30:92,0.3330659568309784,0.6433374881744385,-0.29836422204971313,0.6214286088943481,-0.00224974169395864,0.000897963298484683,0.1363821029663086,0,0,0
4207246009,d4:22:cd:00:30:92,0.3330565392971039,0.643294095993042,-0.29836201667785645,0.6214795708656311,0.0071619837544858456,-0.022337550297379494,0.14509105682373047,0,0,0
4207262676,d4:22:cd:00:30:92,0.33298760652542114,0.6433171033859253,-0.2983999252319336,0.6214745044708252,0.001444145105779171,-0.01125041302293539,0.14954185485839844,0,0,0
4207279343,d4:22:cd:00:30:92,0.3328803777694702,0.6433519124984741,-0.29845207929611206,0.6214709281921387,-0.002246556570753455,0.0006684155086986721,0.1394023895263672,0,0,0
