sep=,
Measurement Mode:,Extended (Quaternion)
StartTime:,Tue, 31 May 2022 11:31:13 GMT
© Xsens Technologies B. V. 2005-2022

Timestamp,Address,Quaternion_w,Quaternion_x,Quaternion_y,Quaternion_z,FreeAcc_x,FreeAcc_y,FreeAcc_z,Status,ClipCountAcc,ClipCountGyr
784460489,d4:22:cd:00:30:92,0.7984524965286255,0.013267502188682556,-0.5788425207138062,0.16508173942565918,-0.0289069302380085,0.02425719052553177,0.1627645492553711,0,0,0
784477156,d4:22:cd:00:30:92,0.7984721660614014,0.013284221291542053,-0.5787962079048157,0.1651475876569748,-0.03380588814616203,0.039714228361845016,0.17107391357421875,0,0,0
784493823,d4:22:cd:00:30:92,0.7984983921051025,0.013297364115715027,-0.5787388682365417,0.16522075235843658,-0.03920953720808029,0.03631146624684334,0.1953868865966797,0,0,0
784510490,d4:22:cd:00:30:92,0.79856276512146,0.013199150562286377,-0.5786743760108948,0.16514362394809723,-0.018954792991280556,0.041414715349674225,0.171783447265625,0,0,0
784527157,d4:22:cd:00:30:92,0.798625111579895,0.0130719393491745,-0.5786291360855103,0.1650102287530899,-0.027167106047272682,0.05092195048928261,0.17841529846191406,0,0,0
784543824,d4:22:cd:00:30:92,0.7986743450164795,0.012971803545951843,-0.5785834193229675,0.16494067013263702,-0.03443440422415733,0.046243488788604736,0.16644573211669922,0,0,0
784560491,d4:22:cd:00:30:92,0.7987246513366699,0.012810558080673218,-0.5785470604896545,0.1648373305797577,-0.009271764196455479,0.031465593725442886,0.1454448699951172,0,0,0
784577158,d4:22:cd:00:30:92,0.7987722754478455,0.012667492032051086,-0.5784995555877686,0.1647842526435852,0.010978956706821918,0.032127752900123596,0.1399393081665039,0,0,0
784593825,d4:22:cd:00:30:92,0.798830509185791,0.012480705976486206,-0.5784580707550049,0.1646610051393509,0.0002910138573497534,0.05739644914865494,0.11942005157470703,0,0,0
784610492,d4:22:cd:00:30:92,0.798861026763916,0.012422338128089905,-0.5784360766410828,0.16459429264068604,0.009127821773290634,0.028324566781520844,0.12274742126464844,0,0,0
784627159,d4:22:cd:00:30:92,0.7988824248313904,0.012417569756507874,-0.5784234404563904,0.1645362824201584,0.010525224730372429,0.003609845880419016,0.1412801742553711,0,0,0
784643826,d4:22:cd:00:30:92,0.798895001411438,0.012476861476898193,-0.5784016251564026,0.16454683244228363,0.0016168927541002631,-0.009056074544787407,0.15846729278564453,0,0,0
784660493,d4:22:cd:00:30:92,0.7989042401313782,0.012577027082443237,-0.5783894062042236,0.16453728079795837,-0.03339149430394173,0.010291318409144878,0.1284313201904297,0,0,0
784677160,d4:22:cd:00:30:92,0.7989102602005005,0.012650921940803528,-0.5783833861351013,0.16452385485172272,-0.02854349836707115,0.0023411863949149847,0.16428279876708984,0,0,0
784693827,d4:22:cd:00:30:92,0.7989367842674255,0.012722060084342957,-0.5783761143684387,0.1644151359796524,-0.027922580018639565,0.0045350780710577965,0.1145772933959961,0,0,0
784710494,d4:22:cd:00:30:92,0.7989605665206909,0.012874752283096313,-0.5783689618110657,0.16431303322315216,-0.025828709825873375,-0.007900848053395748,0.16199302673339844,0,0,0
784727161,d4:22:cd:00:30:92,0.798992931842804,0.013035386800765991,-0.5783504247665405,0.16420745849609375,-0.0064139277674257755,-0.03451867029070854,0.18889904022216797,0,0,0
784743828,d4:22:cd:00:30:92,0.7990372776985168,0.013159289956092834,-0.5783137679100037,0.1641111671924591,0.0038859962951391935,-0.007590500172227621,0.1765575408935547,0,0,0
784760495,d4:22:cd:00:30:92,0.7990820407867432,0.013226106762886047,-0.5782802104949951,0.1640058159828186,0.004846207797527313,-0.026324238628149033,0.15630435943603516,0,0,0
784777162,d4:22:cd:00:30:92,0.7991317510604858,0.013324320316314697,-0.5782394409179688,0.16389985382556915,0.01232718676328659,-0.02507088892161846,0.1539754867553711,0,0,0
784793829,d4:22:cd:00:30:92,0.7991695404052734,0.013428300619125366,-0.5782122611999512,0.16380327939987183,0.02118232287466526,-0.03234400227665901,0.17005443572998047,0,0,0
784810496,d4:22:cd:00:30:92,0.7991829514503479,0.013591542840003967,-0.57818603515625,0.163816437125206,0.05315003916621208,-0.03379761800169945,0.16132545471191406,0,0,0
784827163,d4:22:cd:00:30:92,0.7991771101951599,0.013773694634437561,-0.5781548023223877,0.16394050419330597,0.043065134435892105,-0.018980609253048897,0.14534664154052734,0,0,0
784843830,d4:22:cd:00:30:92,0.7991757392883301,0.01391550898551941,-0.578116774559021,0.16406850516796112,-0.00011041539983125404,0.012186038307845592,0.1365203857421875,0,0,0
784860497,d4:22:cd:00:30:92,0.7991956472396851,0.013999313116073608,-0.5780986547470093,0.16402778029441833,0.00291639706119895,0.023970982059836388,0.1180877685546875,0,0,0
784877164,d4:22:cd:00:30:92,0.7992123961448669,0.014107391238212585,-0.57808917760849,0.16397054493427277,0.047667715698480606,-0.020992783829569817,0.15415668487548828,0,0,0
784893831,d4:22:cd:00:30:92,0.7992265224456787,0.014237716794013977,-0.5780725479125977,0.16394910216331482,0.07684822380542755,-0.05659828707575798,0.17943286895751953,0,0,0
784910498,d4:22:cd:00:30:92,0.7992452383041382,0.014294534921646118,-0.578039824962616,0.16396789252758026,0.058245688676834106,-0.08096633851528168,0.1789836883544922,0,0,0
784927165,d4:22:cd:00:30:92,0.7992473840713501,0.014354914426803589,-0.5780115723609924,0.1640525460243225,0.0742572620511055,-0.08218750357627869,0.1273365020751953,0,0,0
784943832,d4:22:cd:00:30:92,0.7992209792137146,0.014510676264762878,-0.5780051946640015,0.164190411567688,0.09314902126789093,-0.07205644249916077,0.1321725845336914,0,0,0
784960499,d4:22:cd:00:30:92,0.7991716861724854,0.014686569571495056,-0.5780200362205505,0.16436181962490082,0.061071787029504776,-0.08145114034414291,0.12529277801513672,0,0,0
784977166,d4:22:cd:00:30:92,0.7991094589233398,0.014835387468338013,-0.5780321359634399,0.1646086573600769,0.06110978499054909,-0.09709212929010391,0.1535787582397461,0,0,0
784993833,d4:22:cd:00:30:92,0.7990479469299316,0.014947518706321716,-0.5780248641967773,0.16492146253585815,0.04589927941560745,-0.09009796380996704,0.1623830795288086,0,0,0
785010500,d4:22:cd:00:30:92,0.7989781498908997,0.015074178576469421,-0.5780168175697327,0.16527609527111053,0.05895690619945526,-0.06249947473406792,0.15758228302001953,0,0,0
785027167,d4:22:cd:00:30:92,0.7989159822463989,0.01522199809551239,-0.5779978632926941,0.16562964022159576,0.039387453347444534,-0.07059500366449356,0.16844558715820312,0,0,0
785043834,d4:22:cd:00:30:92,0.7988539934158325,0.015438377857208252,-0.5779532194137573,0.16606394946575165,-0.01688595674932003,-0.05085891857743263,0.1431713104248047,0,0,0
785060501,d4:22:cd:00:30:92,0.7987972497940063,0.015632182359695435,-0.5779061317443848,0.16648130118846893,-0.02298920229077339,-0.0441482774913311,0.11666202545166016,0,0,0
785077168,d4:22:cd:00:30:92,0.798742413520813,0.01581646502017975,-0.5778667330741882,0.16686289012432098,0.019781343638896942,-0.044191863387823105,0.13033485412597656,0,0,0
785093835,d4:22:cd:00:30:92,0.7986811399459839,0.016025766730308533,-0.5778265595436096,0.16727589070796967,0.02159626968204975,-0.0431387834250927,0.17366981506347656,0,0,0
785110502,d4:22:cd:00:30:92,0.7986351251602173,0.016153991222381592,-0.5777703523635864,0.16767655313014984,0.018988318741321564,-0.03451453521847725,0.18335247039794922,0,0,0
785127169,d4:22:cd:00:30:92,0.7985631227493286,0.01628287136554718,-0.5777360200881958,0.168125182390213,0.05660376325249672,-0.00405262503772974,0.17084693908691406,0,0,0
785143836,d4:22:cd:00:30:92,0.7984659671783447,0.01648975908756256,-0.5776990652084351,0.16869178414344788,0.04322516918182373,0.023073019459843636,0.1572265625,0,0,0
785160503,d4:22:cd:00:30:92,0.7983849048614502,0.01666979491710663,-0.5776604413986206,0.16919030249118805,0.04918581247329712,-0.006966339889913797,0.15999984741210938,0,0,0
785177170,d4:22:cd:00:30:92,0.7983070015907288,0.01689372956752777,-0.5775962471961975,0.16975320875644684,0.05080270767211914,-0.01953972689807415,0.17185688018798828,0,0,0
785193837,d4:22:cd:00:30:92,0.798230767250061,0.01708945631980896,-0.5775313377380371,0.17031243443489075,0.07209544628858566,-0.023929744958877563,0.1597919464111328,0,0,0
785210504,d4:22:cd:00:30:92,0.7981481552124023,0.017218559980392456,-0.5774751305580139,0.17087697982788086,0.08941411972045898,-0.031581152230501175,0.16180038452148438,0,0,0
785227171,d4:22:cd:00:30:92,0.7980441451072693,0.0172223299741745,-0.5774509310722351,0.17144249379634857,0.10248113423585892,-0.06914105266332626,0.1326904296875,0,0,0
785243838,d4:22:cd:00:30:92,0.7978777885437012,0.01731976866722107,-0.5774338245391846,0.1722620725631714,0.18617244064807892,-0.14167837798595428,0.1572408676147461,0,0,0
785260505,d4:22:cd:00:30:92,0.7976701855659485,0.017440691590309143,-0.5774036645889282,0.17330919206142426,0.20961089432239532,-0.15671466290950775,0.19993114471435547,0,0,0
785277172,d4:22:cd:00:30:92,0.7974033355712891,0.01753973960876465,-0.5773763060569763,0.17461419105529785,0.21734265983104706,-0.13528390228748322,0.20528316497802734,0,0,0
785293839,d4:22:cd:00:30:92,0.79704749584198,0.017548084259033203,-0.5773564577102661,0.17629556357860565,0.24208912253379822,-0.23042766749858856,0.2281484603881836,0,0,0
785310506,d4:22:cd:00:30:92,0.7965772151947021,0.01731741428375244,-0.5773699283599854,0.1783873438835144,0.30806031823158264,-0.41506868600845337,0.26487064361572266,0,0,0
785327173,d4:22:cd:00:30:92,0.7959921360015869,0.016827017068862915,-0.5773607492446899,0.1810556948184967,0.4212276041507721,-0.5072975158691406,0.41066551208496094,0,0,0
785343840,d4:22:cd:00:30:92,0.7952523231506348,0.01576690375804901,-0.5773349404335022,0.18445266783237457,0.47281840443611145,-0.5354438424110413,0.5760517120361328,0,0,0
785360507,d4:22:cd:00:30:92,0.7943413257598877,0.014115959405899048,-0.5772672891616821,0.1886753886938095,0.6299167275428772,-0.5727709531784058,0.5748090744018555,0,0,0
785377174,d4:22:cd:00:30:92,0.7931990623474121,0.012269377708435059,-0.5771263837814331,0.1939670890569687,0.7725309729576111,-0.5614057779312134,0.600987434387207,0,0,0
785393841,d4:22:cd:00:30:92,0.791824460029602,0.010209962725639343,-0.5769283771514893,0.20019136369228363,0.7664446830749512,-0.582689642906189,0.5842418670654297,0,0,0
785410508,d4:22:cd:00:30:92,0.7902476191520691,0.007551968097686768,-0.5766607522964478,0.20718872547149658,0.6929388642311096,-0.6030229926109314,0.6331872940063477,0,0,0
785427175,d4:22:cd:00:30:92,0.7884044647216797,0.004185184836387634,-0.5763471126556396,0.21503031253814697,0.7376607060432434,-0.5711653828620911,0.6846933364868164,0,0,0
785443842,d4:22:cd:00:30:92,0.7861908674240112,0.00005868077278137207,-0.5759865045547485,0.22395697236061096,0.8876423835754395,-0.5902559757232666,0.8385295867919922,0,0,0
785460509,d4:22:cd:00:30:92,0.7835400104522705,-0.00462709367275238,-0.5755600929260254,0.2340666502714157,0.959664523601532,-0.455562025308609,0.870234489440918,0,0,0
785477176,d4:22:cd:00:30:92,0.7804030776023865,-0.00964529812335968,-0.5751172304153442,0.24521687626838684,0.9387850165367126,-0.35301005840301514,0.7719583511352539,0,0,0
785493843,d4:22:cd:00:30:92,0.7767695188522339,-0.01465374231338501,-0.5746033191680908,0.257407546043396,0.9505447149276733,-0.3220037817955017,0.7486743927001953,0,0,0
785510510,d4:22:cd:00:30:92,0.7726544141769409,-0.019547805190086365,-0.5739526152610779,0.2705819606781006,0.9210025668144226,-0.3612242639064789,0.8404264450073242,0,0,0
785527177,d4:22:cd:00:30:92,0.7681214213371277,-0.02457401156425476,-0.5730895400047302,0.284546822309494,0.8125978708267212,-0.3377884328365326,0.9467029571533203,0,0,0
785543844,d4:22:cd:00:30:92,0.7632321715354919,-0.030025526881217957,-0.5720003843307495,0.2990046739578247,0.6389962434768677,-0.23998261988162994,1.0204391479492188,0,0,0
785560511,d4:22:cd:00:30:92,0.757948100566864,-0.03591527044773102,-0.5707089304924011,0.3138939142227173,0.5441308617591858,-0.10670787841081619,1.0060758590698242,0,0,0
785577178,d4:22:cd:00:30:92,0.7522951364517212,-0.04215209186077118,-0.5692210793495178,0.32905319333076477,0.42208075523376465,0.024298205971717834,0.9330558776855469,0,0,0
785593845,d4:22:cd:00:30:92,0.7463333010673523,-0.04880467802286148,-0.5675827860832214,0.34419113397598267,0.22501318156719208,0.08193626999855042,0.8307533264160156,0,0,0
785610512,d4:22:cd:00:30:92,0.740082323551178,-0.055991172790527344,-0.5658662915229797,0.35909831523895264,0.12598352134227753,0.12534935772418976,0.7652807235717773,0,0,0
785627179,d4:22:cd:00:30:92,0.7335843443870544,-0.0637713298201561,-0.5640996694564819,0.37361985445022583,0.05198240652680397,0.09470277279615402,0.7541017532348633,0,0,0
785643846,d4:22:cd:00:30:92,0.7268667817115784,-0.07205872237682343,-0.562131404876709,0.3879350423812866,0.12525174021720886,0.07365813851356506,0.8795070648193359,0,0,0
785660513,d4:22:cd:00:30:92,0.7198776006698608,-0.08039851486682892,-0.5598485469818115,0.4023616909980774,0.2269166111946106,0.09225642681121826,0.9214191436767578,0,0,0
785677180,d4:22:cd:00:30:92,0.7125479578971863,-0.08863342553377151,-0.5572784543037415,0.41698145866394043,0.21511155366897583,0.24130162596702576,0.9468669891357422,0,0,0
785693847,d4:22:cd:00:30:92,0.7048565149307251,-0.09647344052791595,-0.5544281601905823,0.43184763193130493,0.17014454305171967,0.3694150149822235,0.8050060272216797,0,0,0
785710514,d4:22:cd:00:30:92,0.6968182921409607,-0.10381048917770386,-0.5513121485710144,0.44691789150238037,0.14273984730243683,0.4868270456790924,0.7703704833984375,0,0,0
785727181,d4:22:cd:00:30:92,0.6883962750434875,-0.11064067482948303,-0.5479458570480347,0.46220967173576355,-0.050919827073812485,0.5978881120681763,0.6731500625610352,0,0,0
785743848,d4:22:cd:00:30:92,0.6796377301216125,-0.11721927672624588,-0.5444228053092957,0.47746098041534424,-0.26675936579704285,0.6439811587333679,0.5473823547363281,0,0,0
785760515,d4:22:cd:00:30:92,0.6705811023712158,-0.12371855974197388,-0.5408836603164673,0.49241501092910767,-0.3752787113189697,0.7373750805854797,0.4645853042602539,0,0,0
785777182,d4:22:cd:00:30:92,0.6611252427101135,-0.1305702179670334,-0.5374548435211182,0.5069713592529297,-0.5464364290237427,0.7594476342201233,0.6077032089233398,0,0,0
785793849,d4:22:cd:00:30:92,0.6512413620948792,-0.13817763328552246,-0.5342475175857544,0.5209455490112305,-0.7856929898262024,0.675624430179596,0.49909496307373047,0,0,0
785810516,d4:22:cd:00:30:92,0.6410042643547058,-0.14670564234256744,-0.5315314531326294,0.5339271426200867,-0.9256086945533752,0.5383202433586121,0.27948474884033203,0,0,0
785827183,d4:22:cd:00:30:92,0.6305391192436218,-0.15593425929546356,-0.52928626537323,0.5458700060844421,-0.9455794095993042,0.45952314138412476,0.1343088150024414,0,0,0
785843850,d4:22:cd:00:30:92,0.6199326515197754,-0.16556711494922638,-0.5273233652114868,0.5569688081741333,-0.7946068644523621,0.45692867040634155,0.2566413879394531,0,0,0
785860517,d4:22:cd:00:30:92,0.6092410087585449,-0.17517180740833282,-0.5253397822380066,0.5676015019416809,-0.7592563033103943,0.5356733202934265,0.3542308807373047,0,0,0
785877184,d4:22:cd:00:30:92,0.598544716835022,-0.18444006145000458,-0.5231645107269287,0.5779603123664856,-0.7859810590744019,0.47494351863861084,0.30202484130859375,0,0,0
785893851,d4:22:cd:00:30:92,0.5879148244857788,-0.1934518814086914,-0.5208585262298584,0.5879217982292175,-0.9240689277648926,0.33885887265205383,0.03692150115966797,0,0,0
785910518,d4:22:cd:00:30:92,0.5773550868034363,-0.20251046121120453,-0.5186514854431152,0.5972139239311218,-1.0022915601730347,0.30095362663269043,-0.13558673858642578,0,0,0
785927185,d4:22:cd:00:30:92,0.5667867660522461,-0.2116222083568573,-0.5166698694229126,0.6058334708213806,-1.006553053855896,0.4039554297924042,-0.09349918365478516,0,0,0
785943852,d4:22:cd:00:30:92,0.5561615228652954,-0.22071336209774017,-0.5146337151527405,0.614113450050354,-0.8458809852600098,0.6103129386901855,0.4259471893310547,0,0,0
785960519,d4:22:cd:00:30:92,0.5455871820449829,-0.22938646376132965,-0.5117089748382568,0.6228029131889343,-0.7073416113853455,0.8376100063323975,1.0021209716796875,0,0,0
785977186,d4:22:cd:00:30:92,0.5351674556732178,-0.23744425177574158,-0.5076043009757996,0.6321130990982056,-0.8147867321968079,0.848968505859375,1.009810447692871,0,0,0
785993853,d4:22:cd:00:30:92,0.5250699520111084,-0.24494725465774536,-0.5027211904525757,0.6415501832962036,-0.9163749814033508,0.5317743420600891,0.24626445770263672,0,0,0
786010520,d4:22:cd:00:30:92,0.5152335166931152,-0.2524006962776184,-0.4979434311389923,0.6503028869628906,-0.9580857157707214,0.3417910039424896,-0.39552974700927734,0,0,0
786027187,d4:22:cd:00:30:92,0.5056605339050293,-0.25978025794029236,-0.493570476770401,0.6581969261169434,-0.9342334866523743,0.39530181884765625,-0.6935501098632812,0,0,0
786043854,d4:22:cd:00:30:92,0.495924174785614,-0.26763033866882324,-0.48991668224334717,0.6651526689529419,-0.9577490091323853,0.6104351878166199,-0.4578828811645508,0,0,0
786060521,d4:22:cd:00:30:92,0.4861387610435486,-0.2756490111351013,-0.48656997084617615,0.6715277433395386,-1.0293469429016113,0.5117208361625671,-0.45112133026123047,0,0,0
786077188,d4:22:cd:00:30:92,0.47688019275665283,-0.28335508704185486,-0.4833379089832306,0.6772688031196594,-0.8811064958572388,0.21627597510814667,-0.5942468643188477,0,0,0
786093855,d4:22:cd:00:30:92,0.4685792922973633,-0.29068517684936523,-0.48007482290267944,0.6822586059570312,-0.8891984224319458,-0.3069685995578766,-1.2197256088256836,0,0,0
786110522,d4:22:cd:00:30:92,0.461008757352829,-0.2983359396457672,-0.4775172770023346,0.6858986020088196,-0.8039217591285706,-0.4036511182785034,-1.5081253051757812,0,0,0
786127189,d4:22:cd:00:30:92,0.4534989595413208,-0.30656111240386963,-0.4757572412490845,0.6884962916374207,-0.6121684312820435,0.31807342171669006,-0.527186393737793,0,0,0
786143856,d4:22:cd:00:30:92,0.44607681035995483,-0.3145664930343628,-0.47366124391555786,0.6911740899085999,-0.6519503593444824,0.7872263193130493,0.2244424819946289,0,0,0
786160523,d4:22:cd:00:30:92,0.4394075870513916,-0.3217238187789917,-0.47052302956581116,0.6942880153656006,-0.5883913040161133,0.20342132449150085,-0.03162574768066406,0,0,0
786177190,d4:22:cd:00:30:92,0.4337279796600342,-0.3281843364238739,-0.46669742465019226,0.6974107623100281,-0.44272327423095703,-0.4639396667480469,-0.5043220520019531,0,0,0
786193857,d4:22:cd:00:30:92,0.4288508892059326,-0.33434951305389404,-0.462706983089447,0.7001519799232483,-0.3748003840446472,-0.7495169639587402,-1.0103368759155273,0,0,0
786210524,d4:22:cd:00:30:92,0.42435741424560547,-0.3407565951347351,-0.45920440554618835,0.7021040916442871,-0.3396837115287781,-0.6487072110176086,-1.2377777099609375,0,0,0
786227191,d4:22:cd:00:30:92,0.4197445809841156,-0.347786009311676,-0.4565989673137665,0.7031285762786865,-0.23974430561065674,-0.07771363854408264,-0.7481441497802734,0,0,0
786243858,d4:22:cd:00:30:92,0.4162137508392334,-0.3540137708187103,-0.45324310660362244,0.7042898535728455,0.16681510210037231,0.6518109440803528,0.722346305847168,0,0,0
786260525,d4:22:cd:00:30:92,0.4144161343574524,-0.3581463098526001,-0.44756585359573364,0.7068865299224854,-0.06337776780128479,0.342513769865036,0.03274822235107422,0,0,0
786277192,d4:22:cd:00:30:92,0.41288769245147705,-0.3619086742401123,-0.4412006139755249,0.7098599672317505,-0.17021416127681732,-0.4566549062728882,-0.6429777145385742,0,0,0
786293859,d4:22:cd:00:30:92,0.41113099455833435,-0.3658870756626129,-0.43572142720222473,0.712220311164856,-0.00797270704060793,-0.7265180349349976,-1.128523826599121,0,0,0
786310526,d4:22:cd:00:30:92,0.4091135263442993,-0.37041032314300537,-0.43138638138771057,0.7136815190315247,-0.02727651596069336,-0.5325350165367126,-1.0369596481323242,0,0,0
786327193,d4:22:cd:00:30:92,0.4067770540714264,-0.37532341480255127,-0.4280913770198822,0.7144337892532349,-0.14140570163726807,-0.25526148080825806,-0.9885759353637695,0,0,0
786343860,d4:22:cd:00:30:92,0.40416377782821655,-0.3804623484611511,-0.4257734715938568,0.7145839929580688,0.02478160709142685,-0.0981428325176239,-0.7829980850219727,0,0,0
786360527,d4:22:cd:00:30:92,0.40184521675109863,-0.3851737380027771,-0.4237256646156311,0.7145848274230957,0.09686514735221863,0.030087415128946304,-0.7676706314086914,0,0,0
786377194,d4:22:cd:00:30:92,0.39968517422676086,-0.38965702056884766,-0.4217953681945801,0.7145076394081116,0.15717346966266632,0.14962440729141235,-0.6059780120849609,0,0,0
786393861,d4:22:cd:00:30:92,0.39792531728744507,-0.3935253322124481,-0.4197332262992859,0.7145841121673584,0.16682733595371246,0.21231739223003387,-0.72381591796875,0,0,0
786410528,d4:22:cd:00:30:92,0.39683985710144043,-0.39654839038848877,-0.41756266355514526,0.7147881388664246,0.19519470632076263,0.055268384516239166,-0.9253425598144531,0,0,0
786427195,d4:22:cd:00:30:92,0.39632654190063477,-0.3987291157245636,-0.41553521156311035,0.7150413393974304,0.2156113237142563,-0.08634520322084427,-1.0179529190063477,0,0,0
786443862,d4:22:cd:00:30:92,0.3967055678367615,-0.39991265535354614,-0.41359943151474,0.7152923345565796,0.23564401268959045,-0.0665724128484726,-1.1400060653686523,0,0,0
786460529,d4:22:cd:00:30:92,0.39749205112457275,-0.40055519342422485,-0.4122201204299927,0.7152922749519348,0.2684789001941681,0.04648778960108757,-1.0399608612060547,0,0,0
786477196,d4:22:cd:00:30:92,0.3981703519821167,-0.401040256023407,-0.41190412640571594,0.7148252725601196,0.09389454871416092,-0.07928580045700073,-1.182602882385254,0,0,0
786493863,d4:22:cd:00:30:92,0.39823925495147705,-0.40178245306015015,-0.4130924940109253,0.7136834263801575,0.0060570333153009415,-0.1296280175447464,-0.9965028762817383,0,0,0
786510530,d4:22:cd:00:30:92,0.3978387117385864,-0.4026753008365631,-0.41522660851478577,0.7121635675430298,0.005246910732239485,0.07123424857854843,-0.44721317291259766,0,0,0
786527197,d4:22:cd:00:30:92,0.39761337637901306,-0.40328744053840637,-0.41741427779197693,0.7106623649597168,-0.08638787269592285,0.1332731544971466,-0.19854450225830078,0,0,0
786543864,d4:22:cd:00:30:92,0.39764949679374695,-0.4036514163017273,-0.41937559843063354,0.709279477596283,-0.18744131922721863,0.12577040493488312,0.09068679809570312,0,0,0
786560531,d4:22:cd:00:30:92,0.39790982007980347,-0.40387439727783203,-0.4210473895072937,0.7080151438713074,-0.2822094261646271,0.0332101434469223,0.18978595733642578,0,0,0
786577198,d4:22:cd:00:30:92,0.3982301652431488,-0.4041528105735779,-0.4226529896259308,0.7067183256149292,-0.3431660830974579,-0.06006360426545143,0.12755966186523438,0,0,0
786593865,d4:22:cd:00:30:92,0.39853888750076294,-0.4046505093574524,-0.4242035150527954,0.7053292393684387,-0.34678828716278076,-0.05528433620929718,0.3378734588623047,0,0,0
786610532,d4:22:cd:00:30:92,0.39908677339553833,-0.405104398727417,-0.42536461353302,0.7040584683418274,-0.3316619396209717,-0.036700211465358734,0.4092884063720703,0,0,0
786627199,d4:22:cd:00:30:92,0.399897038936615,-0.4054442346096039,-0.4259442985057831,0.7030519247055054,-0.28121405839920044,-0.05036819726228714,0.4279603958129883,0,0,0
786643866,d4:22:cd:00:30:92,0.4010189175605774,-0.4055553078651428,-0.42587488889694214,0.7023905515670776,-0.2866388261318207,-0.004829975310713053,0.47789764404296875,0,0,0
786660533,d4:22:cd:00:30:92,0.4024110436439514,-0.4055314362049103,-0.42524781823158264,0.7019881010055542,-0.31694573163986206,-0.03244701400399208,0.3972339630126953,0,0,0
786677200,d4:22:cd:00:30:92,0.4039826989173889,-0.4054988622665405,-0.42434149980545044,0.7016523480415344,-0.31544920802116394,-0.09361988306045532,0.23783111572265625,0,0,0
786693867,d4:22:cd:00:30:92,0.40561527013778687,-0.4055176079273224,-0.4234825670719147,0.7012184858322144,-0.3166678547859192,-0.13754548132419586,0.0004673004150390625,0,0,0
786710534,d4:22:cd:00:30:92,0.4071313440799713,-0.40569138526916504,-0.4228519797325134,0.7006195783615112,-0.23882269859313965,-0.07243485003709793,-0.03678417205810547,0,0,0
786727201,d4:22:cd:00:30:92,0.4085162878036499,-0.40589362382888794,-0.422481894493103,0.6999191641807556,-0.16561226546764374,-0.03479713946580887,-0.06146526336669922,0,0,0
786743868,d4:22:cd:00:30:92,0.40991806983947754,-0.4059773087501526,-0.42222216725349426,0.6992075443267822,-0.08531953394412994,0.07568637281656265,0.04006671905517578,0,0,0
786760535,d4:22:cd:00:30:92,0.4115597903728485,-0.40574222803115845,-0.4218168258666992,0.6986240148544312,-0.056662265211343765,0.03934456780552864,0.015773773193359375,0,0,0
786777202,d4:22:cd:00:30:92,0.4133286476135254,-0.4053209125995636,-0.42142945528030396,0.6980578303337097,-0.017792468890547752,-0.06716469675302505,-0.1337118148803711,0,0,0
786793869,d4:22:cd:00:30:92,0.4149543046951294,-0.40492385625839233,-0.421463280916214,0.6973029971122742,-0.037839625030756,-0.12334344536066055,-0.36631298065185547,0,0,0
786810536,d4:22:cd:00:30:92,0.4162442684173584,-0.40476226806640625,-0.4221241772174835,0.6962273716926575,-0.06356445699930191,-0.09632586687803268,-0.3666963577270508,0,0,0
786827203,d4:22:cd:00:30:92,0.4172729253768921,-0.4047805666923523,-0.42326512932777405,0.6949070692062378,-0.06792223453521729,-0.03725175932049751,-0.2187633514404297,0,0,0
786843870,d4:22:cd:00:30:92,0.4181748926639557,-0.4048575758934021,-0.42453038692474365,0.6935469508171082,-0.04409877210855484,0.02319796197116375,-0.00711822509765625,0,0,0
786860537,d4:22:cd:00:30:92,0.41914263367652893,-0.404832661151886,-0.4256207346916199,0.6923078298568726,-0.0756097361445427,-0.012436931021511555,0.08121585845947266,0,0,0
786877204,d4:22:cd:00:30:92,0.4202030897140503,-0.40473613142967224,-0.42648136615753174,0.6911908388137817,-0.11524093151092529,-0.030685758218169212,0.0702362060546875,0,0,0
786893871,d4:22:cd:00:30:92,0.42133235931396484,-0.4045860767364502,-0.42716363072395325,0.6901692152023315,-0.1086779236793518,-0.052064716815948486,0.13493633270263672,0,0,0
786910538,d4:22:cd:00:30:92,0.4225447177886963,-0.4043261706829071,-0.4277697205543518,0.6892042756080627,-0.14160384237766266,-0.13355731964111328,-0.0180206298828125,0,0,0
786927205,d4:22:cd:00:30:92,0.42374932765960693,-0.40404844284057617,-0.42849791049957275,0.6881743669509888,-0.14564606547355652,-0.171624094247818,-0.18564987182617188,0,0,0
786943872,d4:22:cd:00:30:92,0.42485833168029785,-0.403826504945755,-0.4295555651187897,0.6869604587554932,-0.12820233404636383,-0.13475210964679718,-0.2573204040527344,0,0,0
786960539,d4:22:cd:00:30:92,0.42592859268188477,-0.40360361337661743,-0.4308469593524933,0.6856186985969543,-0.1598959118127823,-0.048816289752721786,-0.25844764709472656,0,0,0
786977206,d4:22:cd:00:30:92,0.4270632863044739,-0.4032943546772003,-0.4322487711906433,0.6842111349105835,-0.16999880969524384,0.0020235185511410236,-0.23773479461669922,0,0,0
786993873,d4:22:cd:00:30:92,0.42834192514419556,-0.4027900695800781,-0.4336085021495819,0.6828470230102539,-0.1326058804988861,0.05291029438376427,-0.20401573181152344,0,0,0
787010540,d4:22:cd:00:30:92,0.42977771162986755,-0.40204572677612305,-0.43487125635147095,0.6815792322158813,-0.1134120374917984,0.09726467728614807,-0.17754745483398438,0,0,0
787027207,d4:22:cd:00:30:92,0.4314286708831787,-0.401070237159729,-0.4359738230705261,0.680405855178833,-0.11262225359678268,0.13351552188396454,-0.19965171813964844,0,0,0
787043874,d4:22:cd:00:30:92,0.4332820773124695,-0.4000054597854614,-0.4370594322681427,0.6791572570800781,-0.16506342589855194,0.09701001644134521,-0.31328868865966797,0,0,0
787060541,d4:22:cd:00:30:92,0.4351012706756592,-0.39908096194267273,-0.43838369846343994,0.6776828765869141,-0.10040995478630066,0.08797257393598557,-0.40294361114501953,0,0,0
787077208,d4:22:cd:00:30:92,0.4367930293083191,-0.3983386754989624,-0.4400956630706787,0.6759194135665894,-0.05666511505842209,0.025764841586351395,-0.47956275939941406,0,0,0
787093875,d4:22:cd:00:30:92,0.43828338384628296,-0.3978545069694519,-0.442244291305542,0.6738341450691223,-0.02891821786761284,0.062194351106882095,-0.4265422821044922,0,0,0
787110542,d4:22:cd:00:30:92,0.4396384358406067,-0.39751937985420227,-0.4446648061275482,0.6715524792671204,-0.031058913096785545,0.11356799304485321,-0.3309650421142578,0,0,0
787127209,d4:22:cd:00:30:92,0.4409337043762207,-0.3972896337509155,-0.447200745344162,0.6691511273384094,-0.08569218218326569,0.07986050844192505,-0.3347320556640625,0,0,0
787143876,d4:22:cd:00:30:92,0.4420909881591797,-0.3972710371017456,-0.4499770998954773,0.6665321588516235,-0.16774602234363556,-0.030958667397499084,-0.3656787872314453,0,0,0
787160543,d4:22:cd:00:30:92,0.44325804710388184,-0.39748096466064453,-0.45292022824287415,0.6636319160461426,-0.26175200939178467,0.03172414377331734,-0.33124542236328125,0,0,0
787177210,d4:22:cd:00:30:92,0.4444642663002014,-0.3979797661304474,-0.45590144395828247,0.6604774594306946,-0.30627477169036865,0.07572920620441437,-0.3245553970336914,0,0,0
787193877,d4:22:cd:00:30:92,0.44577059149742126,-0.39871981739997864,-0.45891714096069336,0.6570534706115723,-0.32083073258399963,0.1273380070924759,-0.3059225082397461,0,0,0
787210544,d4:22:cd:00:30:92,0.4471266269683838,-0.3997196555137634,-0.4619715213775635,0.6533737778663635,-0.28321728110313416,0.14464056491851807,-0.23485279083251953,0,0,0
787227211,d4:22:cd:00:30:92,0.4487152099609375,-0.4006199538707733,-0.46481025218963623,0.6497097611427307,-0.3236885666847229,0.21985061466693878,-0.036665916442871094,0,0,0
787243878,d4:22:cd:00:30:92,0.4507317543029785,-0.4013015329837799,-0.4672011733055115,0.6461688280105591,-0.3597849905490875,0.19982706010341644,0.030511856079101562,0,0,0
787260545,d4:22:cd:00:30:92,0.45329341292381287,-0.40176892280578613,-0.46918290853500366,0.6426408290863037,-0.38256165385246277,0.08667922019958496,-0.018461227416992188,0,0,0
787277212,d4:22:cd:00:30:92,0.45637190341949463,-0.40198132395744324,-0.4707539975643158,0.6391708850860596,-0.39021986722946167,0.1000264585018158,-0.055937767028808594,0,0,0
787293879,d4:22:cd:00:30:92,0.4598996639251709,-0.4019145667552948,-0.4720364809036255,0.6357293128967285,-0.3875768184661865,0.10637260973453522,-0.021821975708007812,0,0,0
787310546,d4:22:cd:00:30:92,0.463842511177063,-0.40168121457099915,-0.47324860095977783,0.6321005821228027,-0.38458701968193054,0.05897344648838043,-0.13366127014160156,0,0,0
787327213,d4:22:cd:00:30:92,0.46802324056625366,-0.4013708829879761,-0.47456610202789307,0.6282164454460144,-0.38300052285194397,0.04091471806168556,-0.16151142120361328,0,0,0
787343880,d4:22:cd:00:30:92,0.472301185131073,-0.40117645263671875,-0.4761825501918793,0.6239008903503418,-0.3832626938819885,0.09381291270256042,-0.0622100830078125,0,0,0
787360547,d4:22:cd:00:30:92,0.4766944646835327,-0.4011317193508148,-0.4779021739959717,0.619256317615509,-0.29020407795906067,0.28565680980682373,0.1982259750366211,0,0,0
787377214,d4:22:cd:00:30:92,0.4813832640647888,-0.4009745121002197,-0.4794233739376068,0.6145371794700623,-0.1866496354341507,0.522800862789154,0.42731285095214844,0,0,0
787393881,d4:22:cd:00:30:92,0.4864126741886139,-0.4008220136165619,-0.48076680302619934,0.6096071004867554,-0.1727973073720932,0.47664183378219604,0.3440837860107422,0,0,0
787410548,d4:22:cd:00:30:92,0.4914640784263611,-0.4009501338005066,-0.4822469651699066,0.6042790412902832,-0.2401537150144577,0.47990739345550537,0.29152393341064453,0,0,0
787427215,d4:22:cd:00:30:92,0.4963269829750061,-0.40157628059387207,-0.48384425044059753,0.5985848903656006,-0.2163969725370407,0.4997347295284271,0.2716789245605469,0,0,0
787443882,d4:22:cd:00:30:92,0.5009298920631409,-0.40259790420532227,-0.4854455590248108,0.592739462852478,-0.041845984756946564,0.5259620547294617,0.38784027099609375,0,0,0
787460549,d4:22:cd:00:30:92,0.5056045651435852,-0.40342214703559875,-0.48669955134391785,0.5871552228927612,0.20919203758239746,0.614461362361908,0.4456024169921875,0,0,0
787477216,d4:22:cd:00:30:92,0.5104485750198364,-0.4036899209022522,-0.48743897676467896,0.5821452140808105,0.2557203769683838,0.5603817105293274,0.45745372772216797,0,0,0
787493883,d4:22:cd:00:30:92,0.5154765248298645,-0.4036949872970581,-0.4878966510295868,0.577307939529419,0.1961270272731781,0.22562263906002045,0.30607032775878906,0,0,0
787510550,d4:22:cd:00:30:92,0.52054363489151,-0.4036896824836731,-0.4883522689342499,0.5723583698272705,0.12888874113559723,-0.006393364630639553,0.202056884765625,0,0,0
787527217,d4:22:cd:00:30:92,0.5253849029541016,-0.40386873483657837,-0.4889097511768341,0.5673102736473083,0.18037596344947815,-0.018019335344433784,0.22071266174316406,0,0,0
787543884,d4:22:cd:00:30:92,0.5297039747238159,-0.40443429350852966,-0.48962876200675964,0.5622484683990479,0.3681766986846924,-0.09968163818120956,0.20214557647705078,0,0,0
787560551,d4:22:cd:00:30:92,0.5333834290504456,-0.40531125664711,-0.49060505628585815,0.5572654008865356,0.5111401677131653,-0.19308283925056458,0.2665271759033203,0,0,0
787577218,d4:22:cd:00:30:92,0.536467432975769,-0.4064077138900757,-0.49171018600463867,0.5525121688842773,0.4810633659362793,-0.2682868540287018,0.32016563415527344,0,0,0
787593885,d4:22:cd:00:30:92,0.538966178894043,-0.4076233506202698,-0.49288609623908997,0.5481193661689758,0.41427990794181824,-0.25277936458587646,0.3363990783691406,0,0,0
787610552,d4:22:cd:00:30:92,0.5409696102142334,-0.4089720547199249,-0.49406129121780396,0.5440681576728821,0.38475653529167175,-0.22925260663032532,0.2797861099243164,0,0,0
787627219,d4:22:cd:00:30:92,0.5425287485122681,-0.41035014390945435,-0.4952631890773773,0.5403727293014526,0.31892192363739014,-0.18666678667068481,0.16943073272705078,0,0,0
787643886,d4:22:cd:00:30:92,0.5436497926712036,-0.41175341606140137,-0.4965653121471405,0.5369729995727539,0.31053346395492554,-0.2215796858072281,0.011618614196777344,0,0,0
787660553,d4:22:cd:00:30:92,0.5443399548530579,-0.41318845748901367,-0.4980350732803345,0.5338008403778076,0.3233295977115631,-0.22063466906547546,0.014876365661621094,0,0,0
787677220,d4:22:cd:00:30:92,0.544809877872467,-0.4144478440284729,-0.49946829676628113,0.5309988856315613,0.2731621265411377,-0.1730712205171585,0.07404518127441406,0,0,0
787693887,d4:22:cd:00:30:92,0.5451772212982178,-0.4154878854751587,-0.5007878541946411,0.5285605192184448,0.26042255759239197,-0.14857101440429688,0.13628101348876953,0,0,0
787710554,d4:22:cd:00:30:92,0.545494556427002,-0.41632598638534546,-0.5019358992576599,0.5264807343482971,0.23725363612174988,-0.14782582223415375,0.1619720458984375,0,0,0
787727221,d4:22:cd:00:30:92,0.5458211898803711,-0.41695743799209595,-0.5028980374336243,0.5247211456298828,0.19846363365650177,-0.10909359902143478,0.19046401977539062,0,0,0
787743888,d4:22:cd:00:30:92,0.5461660027503967,-0.4174460470676422,-0.5036674737930298,0.5232337713241577,0.1887090802192688,-0.00541326031088829,0.24816036224365234,0,0,0
787760555,d4:22:cd:00:30:92,0.5465438365936279,-0.4178151786327362,-0.5041622519493103,0.5220667719841003,0.1879962980747223,0.0755048543214798,0.31859588623046875,0,0,0
787777222,d4:22:cd:00:30:92,0.5470147132873535,-0.41796863079071045,-0.5043393969535828,0.5212792754173279,0.25672072172164917,0.10918831080198288,0.4138212203979492,0,0,0
787793889,d4:22:cd:00:30:92,0.5476436018943787,-0.41789522767066956,-0.5042153596878052,0.520797610282898,0.19790664315223694,0.10957096517086029,0.44368934631347656,0,0,0
787810556,d4:22:cd:00:30:92,0.54833984375,-0.4178033471107483,-0.5039093494415283,0.520434558391571,0.08712714165449142,0.11405882984399796,0.2900724411010742,0,0,0
787827223,d4:22:cd:00:30:92,0.5488833785057068,-0.41798776388168335,-0.5037003755569458,0.5199156999588013,0.06102529540657997,0.12997451424598694,0.15482425689697266,0,0,0
787843890,d4:22:cd:00:30:92,0.5491843223571777,-0.41849178075790405,-0.5037205219268799,0.5191723704338074,0.10945943742990494,0.1467573195695877,0.12885093688964844,0,0,0
787860557,d4:22:cd:00:30:92,0.5492862462997437,-0.4191744923591614,-0.5039384961128235,0.5183015465736389,0.11820080131292343,0.14478571712970734,0.21524715423583984,0,0,0
787877224,d4:22:cd:00:30:92,0.5492895245552063,-0.4198942184448242,-0.5042368769645691,0.5174245238304138,0.09380257874727249,0.11967101693153381,0.3260345458984375,0,0,0
787893891,d4:22:cd:00:30:92,0.5493054986000061,-0.4205516576766968,-0.5044977068901062,0.5166187882423401,0.015718549489974976,0.07263975590467453,0.33631324768066406,0,0,0
787910558,d4:22:cd:00:30:92,0.54938805103302,-0.4210972785949707,-0.504723072052002,0.5158659219741821,-0.00302725937217474,0.040442321449518204,0.32749176025390625,0,0,0
787927225,d4:22:cd:00:30:92,0.5494860410690308,-0.4215836822986603,-0.5049503445625305,0.5151412487030029,-0.029539024457335472,0.03379689157009125,0.2548208236694336,0,0,0
787943892,d4:22:cd:00:30:92,0.5496515035629272,-0.4219546914100647,-0.5051771402359009,0.5144383311271667,-0.07852815091609955,0.05277286097407341,0.19482421875,0,0,0
787960559,d4:22:cd:00:30:92,0.5498862862586975,-0.42217889428138733,-0.505394697189331,0.5137891173362732,-0.10649140924215317,0.03791048005223274,0.27960205078125,0,0,0
787977226,d4:22:cd:00:30:92,0.5502688884735107,-0.4221709668636322,-0.505486249923706,0.5132957100868225,-0.0431605763733387,0.025099443271756172,0.35169410705566406,0,0,0
787993893,d4:22:cd:00:30:92,0.5507886409759521,-0.42187994718551636,-0.5054212212562561,0.5130414962768555,-0.015386855229735374,0.05508868023753166,0.28205299377441406,0,0,0
788010560,d4:22:cd:00:30:92,0.5513832569122314,-0.421414315700531,-0.5052845478057861,0.5129203796386719,0.022359788417816162,0.08401360362768173,0.19521427154541016,0,0,0
788027227,d4:22:cd:00:30:92,0.5519927144050598,-0.4208797812461853,-0.5051408410072327,0.5128450989723206,0.03096839040517807,0.11199792474508286,0.0501861572265625,0,0,0
788043894,d4:22:cd:00:30:92,0.5525707602500916,-0.42036110162734985,-0.5050617456436157,0.5127257704734802,0.07826864719390869,0.07107030600309372,-0.05498695373535156,0,0,0
788060561,d4:22:cd:00:30:92,0.5530853867530823,-0.41988909244537354,-0.5050783157348633,0.5125415325164795,0.12305103242397308,0.07278849929571152,-0.10812854766845703,0,0,0
788077228,d4:22:cd:00:30:92,0.5535030961036682,-0.4194740653038025,-0.5052671432495117,0.5122439861297607,0.10908013582229614,0.05128024145960808,-0.17983436584472656,0,0,0
788093895,d4:22:cd:00:30:92,0.5537348985671997,-0.41921094059944153,-0.5056228041648865,0.511857807636261,0.12845580279827118,0.013292036019265652,-0.14735031127929688,0,0,0
788110562,d4:22:cd:00:30:92,0.5538251399993896,-0.41900569200515747,-0.5060378313064575,0.511518120765686,0.19289638102054596,-0.02993916906416416,-0.058338165283203125,0,0,0
788127229,d4:22:cd:00:30:92,0.5538765788078308,-0.4187639355659485,-0.506371259689331,0.5113304257392883,0.2404894381761551,-0.05593853071331978,0.04089641571044922,0,0,0
788143896,d4:22:cd:00:30:92,0.5538907647132874,-0.41848036646842957,-0.5065975785255432,0.511323094367981,0.23844005167484283,-0.07277799397706985,-0.0003337860107421875,0,0,0
788160563,d4:22:cd:00:30:92,0.5537813305854797,-0.4183046817779541,-0.5067933201789856,0.5113913416862488,0.19166481494903564,-0.05358007922768593,-0.03101825714111328,0,0,0
788177230,d4:22:cd:00:30:92,0.5535646677017212,-0.41825276613235474,-0.5070518255233765,0.5114121437072754,0.14990857243537903,-0.022124653682112694,-0.05523395538330078,0,0,0
788193897,d4:22:cd:00:30:92,0.5532803535461426,-0.4183242917060852,-0.5073306560516357,0.5113845467567444,0.10404349118471146,0.03394273295998573,-0.09029293060302734,0,0,0
788210564,d4:22:cd:00:30:92,0.5529286861419678,-0.4185313582420349,-0.5076548457145691,0.5112739205360413,0.08552410453557968,0.07259421050548553,-0.05579376220703125,0,0,0
788227231,d4:22:cd:00:30:92,0.5525574684143066,-0.4187806248664856,-0.5079922080039978,0.5111359357833862,0.0795055702328682,0.08939987421035767,0.0042095184326171875,0,0,0
788243898,d4:22:cd:00:30:92,0.5522810816764832,-0.4189772307872772,-0.508271336555481,0.5109961628913879,0.06352975964546204,0.10728783905506134,0.09794235229492188,0,0,0
788260565,d4:22:cd:00:30:92,0.5521403551101685,-0.41907089948654175,-0.5084578990936279,0.5108857750892639,0.03835839778184891,0.10407176613807678,0.11319541931152344,0,0,0
788277232,d4:22:cd:00:30:92,0.5520423650741577,-0.4191563129425049,-0.5086398124694824,0.5107405781745911,-0.016692841425538063,0.09279777109622955,0.10109424591064453,0,0,0
788293899,d4:22:cd:00:30:92,0.5519551038742065,-0.419238805770874,-0.5088499188423157,0.5105578303337097,-0.01003617886453867,0.09701982140541077,0.10381507873535156,0,0,0
788310566,d4:22:cd:00:30:92,0.551881730556488,-0.41928988695144653,-0.5090610384941101,0.5103845596313477,-0.012843725271522999,0.0997355580329895,0.11644458770751953,0,0,0
788327233,d4:22:cd:00:30:92,0.551827609539032,-0.41931164264678955,-0.5092895030975342,0.5101973414421082,-0.014266161248087883,0.05239132419228554,0.07641029357910156,0,0,0
788343900,d4:22:cd:00:30:92,0.5517991185188293,-0.41930297017097473,-0.5095489025115967,0.5099761486053467,0.0004132754693273455,0.0299402866512537,0.0850973129272461,0,0,0
788360567,d4:22:cd:00:30:92,0.5518715381622314,-0.41917064785957336,-0.5097382068634033,0.5098173022270203,0.009066803380846977,0.03204130753874779,0.1373758316040039,0,0,0
788377234,d4:22:cd:00:30:92,0.5520708560943604,-0.41887974739074707,-0.5097885131835938,0.5097903609275818,0.03389015048742294,0.023407170549035072,0.17586517333984375,0,0,0
788393901,d4:22:cd:00:30:92,0.5523058176040649,-0.41853606700897217,-0.5098205804824829,0.5097860097885132,-0.012168715707957745,0.04764782264828682,0.0962533950805664,0,0,0
788410568,d4:22:cd:00:30:92,0.552503764629364,-0.4182283878326416,-0.5099116563796997,0.5097328424453735,0.002864318434149027,0.07093474268913269,0.07167339324951172,0,0,0
788427235,d4:22:cd:00:30:92,0.5526360273361206,-0.41797786951065063,-0.5100736618041992,0.50963294506073,0.06543543189764023,0.06696504354476929,0.06647968292236328,0,0,0
788443902,d4:22:cd:00:30:92,0.5527323484420776,-0.4177646040916443,-0.5102849006652832,0.5094917416572571,0.07153576612472534,0.04796766862273216,0.08056354522705078,0,0,0
788460569,d4:22:cd:00:30:92,0.5528556108474731,-0.41757577657699585,-0.510491132736206,0.5093063712120056,0.027562947943806648,0.0556357279419899,0.06388664245605469,0,0,0
788477236,d4:22:cd:00:30:92,0.5530523061752319,-0.4173896610736847,-0.5106507539749146,0.5090853571891785,0.019182104617357254,0.0450722798705101,0.06040000915527344,0,0,0
788493903,d4:22:cd:00:30:92,0.5533013343811035,-0.41721901297569275,-0.5107049942016602,0.508899986743927,0.08208490908145905,0.040792230516672134,0.09110069274902344,0,0,0
788510570,d4:22:cd:00:30:92,0.5535911321640015,-0.41702690720558167,-0.5106531381607056,0.5087944865226746,0.08618279546499252,0.014090536162257195,0.07773494720458984,0,0,0
788527237,d4:22:cd:00:30:92,0.5538947582244873,-0.41682517528533936,-0.5105568766593933,0.5087258815765381,0.08766490966081619,0.011528854258358479,0.06614398956298828,0,0,0
788543904,d4:22:cd:00:30:92,0.5542236566543579,-0.41663217544555664,-0.5104078650474548,0.5086753368377686,0.0727483257651329,0.02569069154560566,0.10212326049804688,0,0,0
788560571,d4:22:cd:00:30:92,0.5546225309371948,-0.41638845205307007,-0.5101668834686279,0.5086819529533386,0.06937730312347412,0.07413572818040848,0.0853424072265625,0,0,0
788577238,d4:22:cd:00:30:92,0.555062472820282,-0.41612911224365234,-0.509858250617981,0.5087238550186157,0.07175213098526001,0.093602254986763,0.037858009338378906,0,0,0
788593905,d4:22:cd:00:30:92,0.5555469989776611,-0.41589730978012085,-0.5095300674438477,0.5087131857872009,0.04031212627887726,0.09746170789003372,0.005415916442871094,0,0,0
788610572,d4:22:cd:00:30:92,0.5560531616210938,-0.4157333970069885,-0.5092082023620605,0.5086164474487305,0.01053975336253643,0.09076224267482758,-0.016160964965820312,0,0,0
788627239,d4:22:cd:00:30:92,0.5565248131752014,-0.41566628217697144,-0.5089508891105652,0.5084128975868225,0.043984442949295044,0.03541383892297745,-0.032866477966308594,0,0,0
788643906,d4:22:cd:00:30:92,0.5569154024124146,-0.4156479835510254,-0.5087704062461853,0.5081806182861328,0.08075635135173798,0.028758909553289413,-0.07371234893798828,0,0,0
788660573,d4:22:cd:00:30:92,0.5572211742401123,-0.41567298769950867,-0.5086668729782104,0.5079285502433777,0.09419931471347809,-0.027101002633571625,-0.115264892578125,0,0,0
788677240,d4:22:cd:00:30:92,0.557443380355835,-0.41571563482284546,-0.5086214542388916,0.5076955556869507,0.12610891461372375,-0.01432544831186533,-0.04989814758300781,0,0,0
788693907,d4:22:cd:00:30:92,0.5575921535491943,-0.4157058596611023,-0.508574903011322,0.5075868368148804,0.15902656316757202,0.005424435716122389,0.01791858673095703,0,0,0
788710574,d4:22:cd:00:30:92,0.557670533657074,-0.415645033121109,-0.5085427761077881,0.5075824856758118,0.17594917118549347,0.010040928609669209,0.0252838134765625,0,0,0
788727241,d4:22:cd:00:30:92,0.5576794147491455,-0.4155917167663574,-0.5085150003433228,0.5076442360877991,0.16060881316661835,-0.006853577680885792,-0.0007724761962890625,0,0,0
788743908,d4:22:cd:00:30:92,0.5576003193855286,-0.41557997465133667,-0.5085344314575195,0.5077214241027832,0.18228353559970856,0.008550935424864292,0.04239082336425781,0,0,0
788760575,d4:22:cd:00:30:92,0.5575004816055298,-0.4155685305595398,-0.5085487365722656,0.5078259110450745,0.11620595306158066,0.055071860551834106,0.10198688507080078,0,0,0
788777242,d4:22:cd:00:30:92,0.5574066638946533,-0.41558074951171875,-0.5085503458976746,0.5079173445701599,0.07460124790668488,0.1056508868932724,0.07080936431884766,0,0,0
788793909,d4:22:cd:00:30:92,0.5572994351387024,-0.41564440727233887,-0.5085049867630005,0.5080282092094421,0.09213650971651077,0.11486956477165222,0.09170341491699219,0,0,0
788810576,d4:22:cd:00:30:92,0.5572028756141663,-0.41574281454086304,-0.5083989500999451,0.5081598162651062,0.05514243245124817,0.09390466660261154,0.11015892028808594,0,0,0
788827243,d4:22:cd:00:30:92,0.5571845769882202,-0.41583576798439026,-0.5082300901412964,0.5082729458808899,0.08541189879179001,0.08387111127376556,0.07565975189208984,0,0,0
788843910,d4:22:cd:00:30:92,0.5571889877319336,-0.4159308671951294,-0.5080727338790894,0.5083475112915039,0.06100406125187874,0.08214296400547028,0.030074119567871094,0,0,0
788860577,d4:22:cd:00:30:92,0.5571877956390381,-0.41606202721595764,-0.5079598426818848,0.5083540678024292,0.02196752466261387,0.10604778677225113,0.014813423156738281,0,0,0
788877244,d4:22:cd:00:30:92,0.5571951866149902,-0.4161943197250366,-0.5078819394111633,0.5083155632019043,0.044210415333509445,0.08373287320137024,0.036350250244140625,0,0,0
788893911,d4:22:cd:00:30:92,0.5572292804718018,-0.4162842631340027,-0.5077717304229736,0.5083147883415222,0.0730898529291153,0.08754974603652954,0.1464977264404297,0,0,0
788910578,d4:22:cd:00:30:92,0.5573338866233826,-0.41626328229904175,-0.5075608491897583,0.5084280371665955,0.08349594473838806,0.06910400092601776,0.16449451446533203,0,0,0
788927245,d4:22:cd:00:30:92,0.5574905276298523,-0.4161723256111145,-0.5072891712188721,0.5086016058921814,0.08731846511363983,0.06262414157390594,0.14474201202392578,0,0,0
788943912,d4:22:cd:00:30:92,0.5576890707015991,-0.4160412549972534,-0.5069888234138489,0.5087907314300537,0.07980351150035858,0.11869845539331436,0.10162639617919922,0,0,0
788960579,d4:22:cd:00:30:92,0.5578609108924866,-0.4159027934074402,-0.5067473649978638,0.5089561343193054,0.05403649061918259,0.0914129987359047,0.018650054931640625,0,0,0
788977246,d4:22:cd:00:30:92,0.5579992532730103,-0.41580504179000854,-0.5066206455230713,0.5090104341506958,0.07511443644762039,0.08444967865943909,0.041947364807128906,0,0,0
788993913,d4:22:cd:00:30:92,0.5581505298614502,-0.41569051146507263,-0.5065014362335205,0.5090566873550415,0.05303649604320526,0.11820723116397858,0.10832881927490234,0,0,0
789010580,d4:22:cd:00:30:92,0.5583520531654358,-0.4155244827270508,-0.5063117742538452,0.5091599822044373,0.055222898721694946,0.07623948901891708,0.0668039321899414,0,0,0
789027247,d4:22:cd:00:30:92,0.5585741400718689,-0.41533637046813965,-0.5061567425727844,0.5092240571975708,0.07960011810064316,0.03698575124144554,-0.025321006774902344,0,0,0
789043914,d4:22:cd:00:30:92,0.5587331056594849,-0.41518688201904297,-0.5060802102088928,0.5092475414276123,0.11229335516691208,0.021779773756861687,-0.03336524963378906,0,0,0
789060581,d4:22:cd:00:30:92,0.5588269233703613,-0.4150788187980652,-0.5060994625091553,0.5092134475708008,0.1455167680978775,0.028871839866042137,-0.006264686584472656,0,0,0
789077248,d4:22:cd:00:30:92,0.5589100122451782,-0.414922297000885,-0.5061436891555786,0.5092059373855591,0.1305914670228958,0.03990354388952255,0.06448554992675781,0,0,0
789093915,d4:22:cd:00:30:92,0.559001088142395,-0.4147406220436096,-0.5061697959899902,0.509227991104126,0.08655762672424316,0.03480878844857216,0.03576087951660156,0,0,0
789110582,d4:22:cd:00:30:92,0.5590927600860596,-0.4146031141281128,-0.5061626434326172,0.5092464685440063,0.08436787128448486,0.015004424378275871,0.050414085388183594,0,0,0
789127249,d4:22:cd:00:30:92,0.5591979622840881,-0.4144188165664673,-0.5061386823654175,0.5093047618865967,0.07988084852695465,0.03393222764134407,0.0821084976196289,0,0,0
789143916,d4:22:cd:00:30:92,0.5593657493591309,-0.41417422890663147,-0.5060623288154602,0.5093953609466553,0.09805267304182053,0.01625905930995941,0.015181541442871094,0,0,0
789160583,d4:22:cd:00:30:92,0.5595427751541138,-0.4139305353164673,-0.5060422420501709,0.5094190835952759,0.06501634418964386,0.05377056822180748,-0.014556884765625,0,0,0
789177250,d4:22:cd:00:30:92,0.559647798538208,-0.4137285351753235,-0.5061041712760925,0.509406328201294,0.09823886305093765,0.050091713666915894,0.02749347686767578,0,0,0
789193917,d4:22:cd:00:30:92,0.5597299933433533,-0.4134789705276489,-0.5061951875686646,0.5094282031059265,0.0967254564166069,0.07321228086948395,0.04094696044921875,0,0,0
789210584,d4:22:cd:00:30:92,0.5598123073577881,-0.4132484793663025,-0.5062422752380371,0.5094778537750244,0.08196957409381866,0.07365919649600983,0.07128334045410156,0,0,0
789227251,d4:22:cd:00:30:92,0.5599116086959839,-0.412997841835022,-0.5062367916107178,0.5095773935317993,0.10259423404932022,0.0670979768037796,0.08176136016845703,0,0,0
789243918,d4:22:cd:00:30:92,0.5600136518478394,-0.4127524793148041,-0.5061718225479126,0.5097287893295288,0.13689543306827545,0.0672369971871376,0.0801239013671875,0,0,0
789260585,d4:22:cd:00:30:92,0.5600799322128296,-0.41250044107437134,-0.5061061382293701,0.5099250078201294,0.11013220995664597,0.03269318491220474,0.019118309020996094,0,0,0
789277252,d4:22:cd:00:30:92,0.5601150393486023,-0.4122704267501831,-0.5060609579086304,0.5101171135902405,0.12298174202442169,0.016179880127310753,-0.01899242401123047,0,0,0
789293919,d4:22:cd:00:30:92,0.5601605176925659,-0.4120989441871643,-0.5060452222824097,0.5102214217185974,0.13080626726150513,-0.012510634958744049,-0.030821800231933594,0,0,0
789310586,d4:22:cd:00:30:92,0.5601285099983215,-0.41191455721855164,-0.5060927867889404,0.5103582739830017,0.14009322226047516,-0.010136368684470654,0.028899192810058594,0,0,0
789327253,d4:22:cd:00:30:92,0.5600889921188354,-0.41172903776168823,-0.5061251521110535,0.5105193853378296,0.1344609260559082,0.01566753163933754,0.07890987396240234,0,0,0
789343920,d4:22:cd:00:30:92,0.5600675940513611,-0.41152071952819824,-0.5061039924621582,0.5107316970825195,0.10128936916589737,0.029719343408942223,0.05710411071777344,0,0,0
789360587,d4:22:cd:00:30:92,0.560023844242096,-0.4113350510597229,-0.5060450434684753,0.5109875798225403,0.12737488746643066,0.010406428016722202,0.04160022735595703,0,0,0
789377254,d4:22:cd:00:30:92,0.5599830150604248,-0.4111674427986145,-0.5059817433357239,0.5112298727035522,0.09705156087875366,0.010825514793395996,0.01954936981201172,0,0,0
789393921,d4:22:cd:00:30:92,0.5599238872528076,-0.41098544001579285,-0.5059587955474854,0.5114637017250061,0.06801588833332062,0.03320799022912979,-0.004184722900390625,0,0,0
789410588,d4:22:cd:00:30:92,0.559867262840271,-0.4108441174030304,-0.5059672594070435,0.5116308331489563,0.08207865059375763,0.07336924225091934,0.035289764404296875,0,0,0
789427255,d4:22:cd:00:30:92,0.5599329471588135,-0.4106559455394745,-0.5059208869934082,0.5117557048797607,0.12407249212265015,0.13140304386615753,0.10355281829833984,0,0,0
789443922,d4:22:cd:00:30:92,0.5600675344467163,-0.4103251099586487,-0.5058093070983887,0.5119841694831848,0.09040071070194244,0.15076088905334473,0.14920711517333984,0,0,0
789460589,d4:22:cd:00:30:92,0.5602463483810425,-0.4100203812122345,-0.5056604743003845,0.5121795535087585,0.0493764691054821,0.1633550524711609,0.12909984588623047,0,0,0
789477256,d4:22:cd:00:30:92,0.5604255795478821,-0.40978842973709106,-0.5055659413337708,0.5122624635696411,0.058451320976018906,0.15731456875801086,0.11900615692138672,0,0,0
789493923,d4:22:cd:00:30:92,0.5606170892715454,-0.4095906615257263,-0.5054874420166016,0.5122885704040527,0.06023361161351204,0.1802920252084732,0.10726451873779297,0,0,0
789510590,d4:22:cd:00:30:92,0.5607782602310181,-0.409421443939209,-0.5054844617843628,0.5122503638267517,0.05573563650250435,0.16480565071105957,0.04951190948486328,0,0,0
789527257,d4:22:cd:00:30:92,0.5609565377235413,-0.4092888832092285,-0.5055462121963501,0.5121001601219177,0.06313123553991318,0.12042168527841568,0.07633590698242188,0,0,0
789543924,d4:22:cd:00:30:92,0.5611664056777954,-0.40911686420440674,-0.5056041479110718,0.5119504928588867,0.11490778625011444,0.13944649696350098,0.10692596435546875,0,0,0
789560591,d4:22:cd:00:30:92,0.5613653659820557,-0.40891140699386597,-0.5056678056716919,0.5118334889411926,0.1068921685218811,0.11823946982622147,0.09783649444580078,0,0,0
789577258,d4:22:cd:00:30:92,0.5615458488464355,-0.40871188044548035,-0.5056930780410767,0.5117698907852173,0.11295226961374283,0.0445864200592041,0.10806083679199219,0,0,0
789593925,d4:22:cd:00:30:92,0.5617448687553406,-0.40847766399383545,-0.5056984424591064,0.5117332935333252,0.11751193553209305,0.024252887815237045,0.11850643157958984,0,0,0
789610592,d4:22:cd:00:30:92,0.5619659423828125,-0.408197820186615,-0.5056539177894592,0.5117577314376831,0.10125025361776352,0.04350690916180611,0.09969234466552734,0,0,0
789627259,d4:22:cd:00:30:92,0.5621964931488037,-0.40791988372802734,-0.5055515170097351,0.5118271112442017,0.04865049943327904,0.025927111506462097,0.1043243408203125,0,0,0
789643926,d4:22:cd:00:30:92,0.5625597238540649,-0.40767860412597656,-0.5053332448005676,0.5118361115455627,-0.033488500863313675,0.016243357211351395,0.08009719848632812,0,0,0
789660593,d4:22:cd:00:30:92,0.5630638599395752,-0.4074752926826477,-0.5049868822097778,0.5117855668067932,-0.11879177391529083,0.021271057426929474,0.044577598571777344,0,0,0
789677260,d4:22:cd:00:30:92,0.5637757778167725,-0.40728142857551575,-0.5044708847999573,0.511664867401123,-0.1541423499584198,-0.007603743113577366,0.06617546081542969,0,0,0
