sep=,
Measurement Mode:,Extended (Quaternion)
StartTime:,Tue, 31 May 2022 13:10:01 GMT
© Xsens Technologies B. V. 2005-2022

Timestamp,Address,Quaternion_w,Quaternion_x,Quaternion_y,Quaternion_z,FreeAcc_x,FreeAcc_y,FreeAcc_z,Status,ClipCountAcc,ClipCountGyr
46517826,d4:22:cd:00:30:92,0.8648987412452698,-0.11805243045091629,-0.09135272353887558,0.4792371392250061,0.015326506458222866,0.005465562455356121,0.11498546600341797,0,0,0
46534493,d4:22:cd:00:30:92,0.8648955225944519,-0.11806164681911469,-0.09135060757398605,0.47924140095710754,0.0015204468509182334,0.015163901261985302,0.13286209106445312,0,0,0
46551160,d4:22:cd:00:30:92,0.8648963570594788,-0.11806631088256836,-0.09132862836122513,0.47924304008483887,-0.015322204679250717,0.01101304218173027,0.10828590393066406,0,0,0
46567827,d4:22:cd:00:30:92,0.8649086356163025,-0.11807537823915482,-0.09130778163671494,0.47922253608703613,-0.0006337710074149072,0.004392029717564583,0.06542682647705078,0,0,0
46584494,d4:22:cd:00:30:92,0.8649093508720398,-0.1180766299366951,-0.09130261838436127,0.47922199964523315,-0.0015430775238201022,0.004559552762657404,0.06876850128173828,0,0,0
46601161,d4:22:cd:00:30:92,0.8649187088012695,-0.11806715279817581,-0.09131563454866409,0.4792048931121826,-0.001916455919854343,-0.0010639217216521502,0.073516845703125,0,0,0
46617828,d4:22:cd:00:30:92,0.8649493455886841,-0.11806168407201767,-0.09132514148950577,0.4791489839553833,0.013992022722959518,-0.004491604398936033,0.10799789428710938,0,0,0
46634495,d4:22:cd:00:30:92,0.8649851083755493,-0.11806348711252213,-0.09132259339094162,0.47908449172973633,0.009428614750504494,0.003275135299190879,0.12543392181396484,0,0,0
46651162,d4:22:cd:00:30:92,0.8649992346763611,-0.11806326359510422,-0.09131310135126114,0.47906070947647095,0.01455080509185791,0.004277814645320177,0.11345958709716797,0,0,0
46667829,d4:22:cd:00:30:92,0.8649830222129822,-0.11807694286108017,-0.09128677099943161,0.4790918231010437,0.007895204238593578,-0.0029655699618160725,0.1019601821899414,0,0,0
46684496,d4:22:cd:00:30:92,0.8649836778640747,-0.11807537823915482,-0.09128671139478683,0.47909101843833923,-0.027675708755850792,-0.008650287054479122,0.033618927001953125,0,0,0
46701163,d4:22:cd:00:30:92,0.8649905920028687,-0.11806189268827438,-0.09130843728780746,0.4790777266025543,-0.003947127144783735,0.01056579314172268,0.07178592681884766,0,0,0
46717830,d4:22:cd:00:30:92,0.8649978637695312,-0.11805927753448486,-0.09132112562656403,0.4790627658367157,0.00418259808793664,0.007855363190174103,0.10746383666992188,0,0,0
46734497,d4:22:cd:00:30:92,0.865004301071167,-0.11805695295333862,-0.0913110300898552,0.4790536165237427,-0.024725673720240593,-0.013736100867390633,0.09984493255615234,0,0,0
46751164,d4:22:cd:00:30:92,0.8650144934654236,-0.11804921180009842,-0.09131453931331635,0.4790363609790802,0.006577315740287304,0.014263143762946129,0.12845230102539062,0,0,0
46767831,d4:22:cd:00:30:92,0.8650180697441101,-0.11806967109441757,-0.09130965918302536,0.47902610898017883,0.005812566261738539,-0.02080112136900425,0.0804433822631836,0,0,0
46784498,d4:22:cd:00:30:92,0.8650039434432983,-0.11809088289737701,-0.09129147231578827,0.4790498614311218,0.0066652121022343636,0.018510673195123672,0.0938720703125,0,0,0
46801165,d4:22:cd:00:30:92,0.8650076389312744,-0.11807743459939957,-0.09131263941526413,0.4790423512458801,0.0027904475573450327,-0.019612032920122147,0.039467811584472656,0,0,0
46817832,d4:22:cd:00:30:92,0.8650084137916565,-0.11807868629693985,-0.09130933880805969,0.4790412485599518,-0.0057292515411973,0.003979647997766733,0.10252189636230469,0,0,0
46834499,d4:22:cd:00:30:92,0.8650105595588684,-0.1180654913187027,-0.0913313627243042,0.47903645038604736,-0.007524898741394281,0.004750655964016914,0.11369895935058594,0,0,0
46851166,d4:22:cd:00:30:92,0.8650103807449341,-0.11806903034448624,-0.0913219302892685,0.47903773188591003,-0.0005823071114718914,-0.00920459907501936,0.1035928726196289,0,0,0
46867833,d4:22:cd:00:30:92,0.8649951219558716,-0.11806653439998627,-0.0913083553314209,0.4790685474872589,-0.004489760845899582,0.02602495439350605,0.1195821762084961,0,0,0
46884500,d4:22:cd:00:30:92,0.8649898767471313,-0.11807627230882645,-0.09130357205867767,0.4790765643119812,-0.023154769092798233,-0.01865774393081665,0.06335163116455078,0,0,0
46901167,d4:22:cd:00:30:92,0.8649925589561462,-0.11808788776397705,-0.0913027673959732,0.47906890511512756,0.014076286926865578,0.003295251401141286,0.08750343322753906,0,0,0
46917834,d4:22:cd:00:30:92,0.8649947047233582,-0.11807437986135483,-0.09131041914224625,0.4790668487548828,-0.005371631123125553,-0.015900488942861557,0.07151985168457031,0,0,0
46934501,d4:22:cd:00:30:92,0.8650039434432983,-0.11806941032409668,-0.09132260084152222,0.4790491461753845,-0.015318237245082855,-0.0032446258701384068,0.09891319274902344,0,0,0
46951168,d4:22:cd:00:30:92,0.8650131821632385,-0.11807180196046829,-0.0913359746336937,0.4790291488170624,0.017161548137664795,0.011142791248857975,0.12402725219726562,0,0,0
46967835,d4:22:cd:00:30:92,0.8650107979774475,-0.11808348447084427,-0.09132885932922363,0.4790319502353668,-0.012912007980048656,-0.004825197625905275,0.1085968017578125,0,0,0
46984502,d4:22:cd:00:30:92,0.8649869561195374,-0.11809522658586502,-0.09131079912185669,0.47907552123069763,-0.015908310189843178,0.033085282891988754,0.09262466430664062,0,0,0
47001169,d4:22:cd:00:30:92,0.8649977445602417,-0.11808957904577255,-0.09130971878767014,0.47905784845352173,-0.020310062915086746,-0.017615055665373802,0.05603981018066406,0,0,0
47017836,d4:22:cd:00:30:92,0.8649900555610657,-0.11808715015649796,-0.09130848199129105,0.4790724813938141,0.016037557274103165,-0.0027949176728725433,0.08867740631103516,0,0,0
47034503,d4:22:cd:00:30:92,0.8649945259094238,-0.11807515472173691,-0.09133630990982056,0.4790620505809784,-0.007580106612294912,0.013380714692175388,0.09347248077392578,0,0,0
47051170,d4:22:cd:00:30:92,0.8649982213973999,-0.11807592958211899,-0.09132617712020874,0.47905710339546204,0.003937068860977888,-0.0011160002322867513,0.11886024475097656,0,0,0
47067837,d4:22:cd:00:30:92,0.8650007247924805,-0.11808987706899643,-0.09132714569568634,0.47904884815216064,0.029026398435235023,0.0025883917696774006,0.1201333999633789,0,0,0
47084504,d4:22:cd:00:30:92,0.8650176525115967,-0.11810101568698883,-0.09132274240255356,0.4790164828300476,0.0012781588593497872,-0.019804924726486206,0.10330963134765625,0,0,0
47101171,d4:22:cd:00:30:92,0.8650169968605042,-0.11809434741735458,-0.09130997955799103,0.47902169823646545,-0.00006532166298711672,0.01053684763610363,0.07810020446777344,0,0,0
47117838,d4:22:cd:00:30:92,0.8650171160697937,-0.11808938533067703,-0.09132448583841324,0.47902005910873413,0.019794251769781113,-0.012971462681889534,0.0683145523071289,0,0,0
47134505,d4:22:cd:00:30:92,0.8650224208831787,-0.11808186024427414,-0.09132728725671768,0.4790117144584656,-0.004508312325924635,-0.0023109004832804203,0.0901174545288086,0,0,0
47151172,d4:22:cd:00:30:92,0.8650296330451965,-0.11807090044021606,-0.0913512110710144,0.4789969325065613,0.00486777676269412,0.018448758870363235,0.10398006439208984,0,0,0
47167839,d4:22:cd:00:30:92,0.865032434463501,-0.11806506663560867,-0.09134954959154129,0.4789937436580658,-0.015894733369350433,-0.015396354719996452,0.0962972640991211,0,0,0
47184506,d4:22:cd:00:30:92,0.8650198578834534,-0.11806704103946686,-0.09135785698890686,0.4790142774581909,0.006060050800442696,0.03657923638820648,0.13297271728515625,0,0,0
47201173,d4:22:cd:00:30:92,0.8650159239768982,-0.11808043718338013,-0.09132856875658035,0.4790237545967102,-0.010119716636836529,-0.029571546241641045,0.1111001968383789,0,0,0
47217840,d4:22:cd:00:30:92,0.8650107979774475,-0.11808270215988159,-0.09130609780550003,0.47903671860694885,0.005653872154653072,0.009614633396267891,0.038539886474609375,0,0,0
47234507,d4:22:cd:00:30:92,0.8650115728378296,-0.11806955188512802,-0.0913291871547699,0.4790342152118683,0.0015862155705690384,-0.007913252338767052,0.08672523498535156,0,0,0
47251174,d4:22:cd:00:30:92,0.8650040030479431,-0.1180785521864891,-0.09131969511508942,0.4790475368499756,-0.005494339391589165,-0.008711528964340687,0.09688568115234375,0,0,0
47267841,d4:22:cd:00:30:92,0.8650043606758118,-0.11806296557188034,-0.09133812040090561,0.4790469706058502,-0.013806954026222229,0.027117261663079262,0.1110372543334961,0,0,0
47284508,d4:22:cd:00:30:92,0.8650123476982117,-0.11807776242494583,-0.09131234139204025,0.47903382778167725,-0.001837723539210856,-0.011200904846191406,0.10872268676757812,0,0,0
47301175,d4:22:cd:00:30:92,0.8650194406509399,-0.1180933490395546,-0.0913078635931015,0.4790180027484894,0.008942808955907822,0.020927853882312775,0.08643054962158203,0,0,0
47317842,d4:22:cd:00:30:92,0.8650406002998352,-0.11809278279542923,-0.09130897372961044,0.4789797067642212,-0.026399506255984306,0.012440619058907032,0.0934286117553711,0,0,0
47334509,d4:22:cd:00:30:92,0.8650478720664978,-0.11810792982578278,-0.09129296243190765,0.4789659082889557,0.011854736134409904,-0.0037959206383675337,0.054253578186035156,0,0,0
47351176,d4:22:cd:00:30:92,0.8650371432304382,-0.11809042096138,-0.09131761640310287,0.47898492217063904,0.004476182162761688,0.009902071207761765,0.08845233917236328,0,0,0
47367843,d4:22:cd:00:30:92,0.8650484085083008,-0.11810372024774551,-0.09130389988422394,0.4789639413356781,-0.008259865455329418,-0.00010851553815882653,0.0906057357788086,0,0,0
47384510,d4:22:cd:00:30:92,0.8650640845298767,-0.11809924989938736,-0.09132187813520432,0.4789332449436188,0.019195515662431717,0.006630847230553627,0.0908517837524414,0,0,0
47401177,d4:22:cd:00:30:92,0.8650657534599304,-0.11811204999685287,-0.0913066640496254,0.47893017530441284,-0.02591722086071968,-0.014715422876179218,0.12697410583496094,0,0,0
47417844,d4:22:cd:00:30:92,0.8650845289230347,-0.11811552941799164,-0.09129117429256439,0.4788981080055237,0.004742106888443232,0.02588503621518612,0.060708045959472656,0,0,0
47434511,d4:22:cd:00:30:92,0.8651021122932434,-0.11811003088951111,-0.09129906445741653,0.47886621952056885,-0.00036862873821519315,-0.024612464010715485,0.09623432159423828,0,0,0
47451178,d4:22:cd:00:30:92,0.8650970458984375,-0.11811212450265884,-0.09131156653165817,0.4788724482059479,-0.026728294789791107,0.027780424803495407,0.06588459014892578,0,0,0
47467845,d4:22:cd:00:30:92,0.8651241660118103,-0.11809226870536804,-0.09133375436067581,0.478824257850647,0.004429579712450504,-0.004852131009101868,0.1121377944946289,0,0,0
47484512,d4:22:cd:00:30:92,0.8651111721992493,-0.11810743808746338,-0.09132549166679382,0.47884538769721985,0.017143666744232178,-0.01322682574391365,0.11513614654541016,0,0,0
47501179,d4:22:cd:00:30:92,0.8651026487350464,-0.11810490489006042,-0.09133759886026382,0.47885915637016296,-0.01363423466682434,0.017453791573643684,0.11277961730957031,0,0,0
47517846,d4:22:cd:00:30:92,0.8651185631752014,-0.11810993403196335,-0.09132123738527298,0.47883230447769165,-0.01373285986483097,-0.020425843074917793,0.10891914367675781,0,0,0
47534513,d4:22:cd:00:30:92,0.8651259541511536,-0.11811584234237671,-0.0913112685084343,0.4788194000720978,-0.0016129253199324012,0.0028540368657559156,0.053348541259765625,0,0,0
47551180,d4:22:cd:00:30:92,0.8651093244552612,-0.1180853471159935,-0.0913299098610878,0.4788535535335541,-0.012215821072459221,-0.011401619762182236,0.07127189636230469,0,0,0
47567847,d4:22:cd:00:30:92,0.8651070594787598,-0.11807405948638916,-0.09133268147706985,0.47885993123054504,-0.0007242937572300434,0.011318807490170002,0.09168529510498047,0,0,0
47584514,d4:22:cd:00:30:92,0.8650950193405151,-0.11806124448776245,-0.0913478434085846,0.4788817763328552,0.027890561148524284,-0.015586117282509804,0.13182640075683594,0,0,0
47601181,d4:22:cd:00:30:92,0.8650810122489929,-0.11807454377412796,-0.0913284495472908,0.4789074659347534,0.004789659287780523,0.005906106438487768,0.122955322265625,0,0,0
47617848,d4:22:cd:00:30:92,0.8650846481323242,-0.11808472871780396,-0.09130356460809708,0.4789033532142639,0.002452998887747526,0.004422762431204319,0.09385871887207031,0,0,0
47634515,d4:22:cd:00:30:92,0.8650892972946167,-0.11809433996677399,-0.09129825234413147,0.47889357805252075,-0.0004088610876351595,-0.0033162618055939674,0.061547279357910156,0,0,0
47651182,d4:22:cd:00:30:92,0.8650952577590942,-0.11808792501688004,-0.09131504595279694,0.47888121008872986,-0.011619879864156246,0.006186615210026503,0.0602874755859375,0,0,0
47667849,d4:22:cd:00:30:92,0.8650985360145569,-0.11808081716299057,-0.0913277268409729,0.4788745641708374,-0.020589230582118034,-0.006630847230553627,0.08944988250732422,0,0,0
47684516,d4:22:cd:00:30:92,0.8651012778282166,-0.11806894838809967,-0.09135041385889053,0.4788680970668793,0.016225699335336685,0.00125658989418298,0.11818695068359375,0,0,0
47701183,d4:22:cd:00:30:92,0.8651096224784851,-0.11806929856538773,-0.09135199338197708,0.47885262966156006,-0.00491136172786355,-0.0023934885393828154,0.14095306396484375,0,0,0
47717850,d4:22:cd:00:30:92,0.8651155829429626,-0.11808490753173828,-0.09132140129804611,0.47884395718574524,0.010584120638668537,0.013175195083022118,0.10954761505126953,0,0,0
47734517,d4:22:cd:00:30:92,0.8651191592216492,-0.11808966100215912,-0.09130269289016724,0.4788399338722229,0.01233121007680893,-0.014486321248114109,0.08466148376464844,0,0,0
47751184,d4:22:cd:00:30:92,0.8651162981987,-0.1180950179696083,-0.09130115061998367,0.47884416580200195,-0.014258338138461113,-0.0035608967300504446,0.05210590362548828,0,0,0
47767851,d4:22:cd:00:30:92,0.8651266694068909,-0.11807368695735931,-0.09132913500070572,0.47882527112960815,-0.0012784382561221719,-0.0060399905778467655,0.07037544250488281,0,0,0
47784518,d4:22:cd:00:30:92,0.8651359677314758,-0.11806411296129227,-0.09134264290332794,0.4788080155849457,0.01835952140390873,-0.00942576490342617,0.11492061614990234,0,0,0
47801185,d4:22:cd:00:30:92,0.8651371002197266,-0.11806011945009232,-0.09135030210018158,0.47880545258522034,0.0030324002727866173,0.014719557017087936,0.11807632446289062,0,0,0
47817852,d4:22:cd:00:30:92,0.8651438355445862,-0.11806170642375946,-0.0913274735212326,0.47879764437675476,0.006059100851416588,0.0015919710276648402,0.13199234008789062,0,0,0
47834519,d4:22:cd:00:30:92,0.8651456832885742,-0.11809293925762177,-0.09131289273500443,0.47878900170326233,0.0067761302925646305,-0.01447402872145176,0.0842752456665039,0,0,0
47851186,d4:22:cd:00:30:92,0.8651372790336609,-0.11807703971862793,-0.09121155738830566,0.4788276255130768,-0.015049406327307224,-0.0005740930209867656,0.05677986145019531,0,0,0
47867853,d4:22:cd:00:30:92,0.8651537299156189,-0.11806667596101761,-0.09120727330446243,0.4788012206554413,-0.006620453670620918,-0.007275346666574478,0.05004119873046875,0,0,0
47884520,d4:22:cd:00:30:92,0.8651462197303772,-0.11802580207586288,-0.09125368297100067,0.4788159430027008,0.009653189219534397,-0.02088773250579834,0.06999778747558594,0,0,0
47901187,d4:22:cd:00:30:92,0.8651303648948669,-0.11803606152534485,-0.09126867353916168,0.47883912920951843,0.018359465524554253,0.03182679042220116,0.15961742401123047,0,0,0
47917854,d4:22:cd:00:30:92,0.8651303648948669,-0.11806179583072662,-0.09123022109270096,0.4788402020931244,-0.014047174714505672,-0.03805810958147049,0.11011981964111328,0,0,0
47934521,d4:22:cd:00:30:92,0.8651148080825806,-0.11805292963981628,-0.0912599191069603,0.4788648188114166,0.024224668741226196,0.043342068791389465,0.10295772552490234,0,0,0
47951188,d4:22:cd:00:30:92,0.865104615688324,-0.11809366196393967,-0.09122058749198914,0.47888070344924927,-0.00742862094193697,-0.014903956092894077,0.0994100570678711,0,0,0
47967855,d4:22:cd:00:30:92,0.8651336431503296,-0.11808908730745316,-0.09122046828269958,0.4788293242454529,-0.031080538406968117,0.02397187612950802,-0.0047054290771484375,0,0,0
47984522,d4:22:cd:00:30:92,0.8651471734046936,-0.11804655194282532,-0.09126123040914536,0.4788077771663666,-0.0016470111440867186,-0.01613629423081875,0.10082149505615234,0,0,0
48001189,d4:22:cd:00:30:92,0.8651232123374939,-0.1180536150932312,-0.09126211702823639,0.47884923219680786,0.01749190129339695,-0.005174771882593632,0.12321949005126953,0,0,0
48017856,d4:22:cd:00:30:92,0.8651427626609802,-0.11803443729877472,-0.09129292517900467,0.4788126051425934,-0.02610575407743454,0.03935381397604942,0.1326923370361328,0,0,0
48034523,d4:22:cd:00:30:92,0.8651595115661621,-0.11805133521556854,-0.09125024825334549,0.4787863492965698,0.01814042404294014,-0.036744412034749985,0.17025470733642578,0,0,0
48051190,d4:22:cd:00:30:92,0.8651342988014221,-0.11806955933570862,-0.0912441611289978,0.478828489780426,0.013581988401710987,0.0085982084274292,0.038430213928222656,0,0,0
48067857,d4:22:cd:00:30:92,0.8651310205459595,-0.11806001514196396,-0.09125123172998428,0.47883549332618713,-0.04981405287981033,-0.003334254492074251,0.06825447082519531,0,0,0
48084524,d4:22:cd:00:30:92,0.8651406168937683,-0.11805788427591324,-0.09124182164669037,0.4788205325603485,0.05134768784046173,-0.0066770026460289955,0.047026634216308594,0,0,0
48101191,d4:22:cd:00:30:92,0.8651026487350464,-0.118037149310112,-0.09130264818668365,0.4788826107978821,-0.016312086954712868,0.015008335933089256,0.11608409881591797,0,0,0
48117858,d4:22:cd:00:30:92,0.8651310205459595,-0.11804063618183136,-0.09126193076372147,0.4788382053375244,-0.02723449468612671,0.009232649579644203,0.10963916778564453,0,0,0
48134525,d4:22:cd:00:30:92,0.8651272654533386,-0.11802767962217331,-0.09129509329795837,0.47884172201156616,0.06399165093898773,-0.0031004599295556545,0.11620426177978516,0,0,0
48151192,d4:22:cd:00:30:92,0.8651018142700195,-0.11806125938892365,-0.09125006198883057,0.47888830304145813,-0.06270135939121246,0.010689954273402691,0.13297653198242188,0,0,0
48167859,d4:22:cd:00:30:92,0.8651394844055176,-0.11805679649114609,-0.09122084826231003,0.4788266718387604,-0.00015718548092991114,0.020922377705574036,0.033679962158203125,0,0,0
48184526,d4:22:cd:00:30:92,0.865123450756073,-0.1180586889386177,-0.09123945236206055,0.4788516163825989,0.05980122834444046,-0.049775440245866776,0.0922842025756836,0,0,0
48201193,d4:22:cd:00:30:92,0.8651103973388672,-0.11806150525808334,-0.09124975651502609,0.4788725972175598,-0.06283971667289734,0.04042913392186165,0.03629493713378906,0,0,0
48217860,d4:22:cd:00:30:92,0.865140438079834,-0.11802684515714645,-0.09125761687755585,0.4788254201412201,0.0026110783219337463,-0.021701542660593987,0.13292694091796875,0,0,0
48234527,d4:22:cd:00:30:92,0.8651447892189026,-0.1180524155497551,-0.09124284982681274,0.478814035654068,0.06664418429136276,-0.01794574409723282,0.1167917251586914,0,0,0
48251194,d4:22:cd:00:30:92,0.8651371598243713,-0.11803527921438217,-0.09125994890928268,0.4788288176059723,-0.04560597613453865,0.014788958244025707,0.10071945190429688,0,0,0
48267861,d4:22:cd:00:30:92,0.865142822265625,-0.1180572584271431,-0.09123343229293823,0.47881820797920227,0.01580527238547802,-0.007265288848429918,0.11942481994628906,0,0,0
48284528,d4:22:cd:00:30:92,0.8651403188705444,-0.11808624863624573,-0.09120940417051315,0.4788202941417694,0.0074714235961437225,0.0057445066049695015,0.043587684631347656,0,0,0
48301195,d4:22:cd:00:30:92,0.8651348948478699,-0.11807019263505936,-0.09124229103326797,0.47882774472236633,-0.040658459067344666,0.00488711055368185,0.08282470703125,0,0,0
48317862,d4:22:cd:00:30:92,0.8651466965675354,-0.1180584728717804,-0.09125074744224548,0.4788075089454651,0.017846671864390373,0.008512603119015694,0.09811115264892578,0,0,0
48334529,d4:22:cd:00:30:92,0.8651466965675354,-0.11806965619325638,-0.09126190096139908,0.47880271077156067,0.007382465060800314,-0.01414803508669138,0.1320486068725586,0,0,0
48351196,d4:22:cd:00:30:92,0.8651483058929443,-0.11808545887470245,-0.09124830365180969,0.478798508644104,0.0045303842052817345,0.006229194346815348,0.12026596069335938,0,0,0
48367863,d4:22:cd:00:30:92,0.8651555180549622,-0.11808141320943832,-0.09123402833938599,0.47878924012184143,0.011670058593153954,-0.004337604157626629,0.08884239196777344,0,0,0
48384530,d4:22:cd:00:30:92,0.865149736404419,-0.11809675395488739,-0.09122488647699356,0.4787977635860443,0.016054879873991013,-0.004907897673547268,0.05723285675048828,0,0,0
48401197,d4:22:cd:00:30:92,0.8651437163352966,-0.11809329688549042,-0.09124434739351273,0.4788057208061218,0.006051669362932444,0.012347414158284664,0.07683086395263672,0,0,0
48417864,d4:22:cd:00:30:92,0.8651496171951294,-0.11808234453201294,-0.09123332798480988,0.47879984974861145,-0.006748135667294264,-0.006966898683458567,0.09366703033447266,0,0,0
48434531,d4:22:cd:00:30:92,0.86514812707901,-0.11806602776050568,-0.09125953912734985,0.47880157828330994,0.009443981572985649,0.020066434517502785,0.0934305191040039,0,0,0
48451198,d4:22:cd:00:30:92,0.8651425838470459,-0.118072509765625,-0.09125743806362152,0.47881031036376953,-0.012046119198203087,-0.004187179729342461,0.1444416046142578,0,0,0
48467865,d4:22:cd:00:30:92,0.8651620745658875,-0.11806780099868774,-0.09123064577579498,0.4787813723087311,-0.0003713108890224248,0.01613718830049038,0.09177589416503906,0,0,0
48484532,d4:22:cd:00:30:92,0.8651585578918457,-0.11806390434503555,-0.09123692661523819,0.47878754138946533,0.006547253113240004,-0.021556707099080086,0.0771036148071289,0,0,0
48501199,d4:22:cd:00:30:92,0.865159273147583,-0.11806798726320267,-0.09124056994915009,0.47878456115722656,-0.004957349505275488,0.008173645474016666,0.07118511199951172,0,0,0
48517866,d4:22:cd:00:30:92,0.8651807308197021,-0.11804799735546112,-0.09125658124685287,0.4787476360797882,0.007981535978615284,0.0019161765230819583,0.08674049377441406,0,0,0
48534533,d4:22:cd:00:30:92,0.8651765584945679,-0.11805292963981628,-0.09123969823122025,0.4787571430206299,0.023938460275530815,-0.029086634516716003,0.11368465423583984,0,0,0
48551200,d4:22:cd:00:30:92,0.8651670813560486,-0.11805269867181778,-0.0912514179944992,0.47877204418182373,-0.01116799283772707,0.019420146942138672,0.0800790786743164,0,0,0
48567867,d4:22:cd:00:30:92,0.8651741743087769,-0.11805824935436249,-0.09124927222728729,0.47875839471817017,-0.00861139502376318,-0.00610246229916811,0.12309074401855469,0,0,0
48584534,d4:22:cd:00:30:92,0.8651663064956665,-0.11805848777294159,-0.0912361815571785,0.4787750840187073,0.01083836704492569,0.0017152384389191866,0.0695352554321289,0,0,0
48601201,d4:22:cd:00:30:92,0.86517333984375,-0.11806046962738037,-0.09123867005109787,0.47876134514808655,-0.036889806389808655,0.0037514413706958294,0.10164070129394531,0,0,0
48617868,d4:22:cd:00:30:92,0.8651874661445618,-0.11806196719408035,-0.09122351557016373,0.47873830795288086,-0.002163772936910391,0.013460285030305386,0.06778335571289062,0,0,0
48634535,d4:22:cd:00:30:92,0.8651843070983887,-0.11805309355258942,-0.09125403314828873,0.47874051332473755,-0.010629940778017044,-0.003839170327410102,0.09329509735107422,0,0,0
48651202,d4:22:cd:00:30:92,0.8651902079582214,-0.11805762350559235,-0.09124010801315308,0.4787313640117645,-0.009599043056368828,0.009232202544808388,0.11089038848876953,0,0,0
48667869,d4:22:cd:00:30:92,0.8651994466781616,-0.11805980652570724,-0.09124444425106049,0.4787132441997528,0.032007165253162384,-0.0027672022115439177,0.09625244140625,0,0,0
48684536,d4:22:cd:00:30:92,0.8651826977729797,-0.11807902157306671,-0.0912364050745964,0.47874024510383606,0.007117267232388258,-0.02089153230190277,0.09873390197753906,0,0,0
48701203,d4:22:cd:00:30:92,0.8651862740516663,-0.11808981001377106,-0.09124410897493362,0.4787297546863556,-0.0021751162130385637,0.014822373166680336,0.06893730163574219,0,0,0
48717870,d4:22:cd:00:30:92,0.8651865124702454,-0.11809069663286209,-0.09125860780477524,0.478726327419281,0.0180190559476614,-0.015904512256383896,0.09713172912597656,0,0,0
48734537,d4:22:cd:00:30:92,0.8651748895645142,-0.11808554083108902,-0.09126251190900803,0.4787476360797882,-0.0006351120537146926,0.015100646764039993,0.09070301055908203,0,0,0
48751204,d4:22:cd:00:30:92,0.865182101726532,-0.11807803809642792,-0.09127025306224823,0.4787350296974182,-0.03659544140100479,0.0049809860065579414,0.11439228057861328,0,0,0
48767871,d4:22:cd:00:30:92,0.8651820421218872,-0.11808957159519196,-0.09125088155269623,0.4787362217903137,0.0019819452427327633,0.021480154246091843,0.10834884643554688,0,0,0
48784538,d4:22:cd:00:30:92,0.8651723861694336,-0.118093341588974,-0.09125250577926636,0.4787523150444031,-0.026096254587173462,0.02016735076904297,0.08109474182128906,0,0,0
48801205,d4:22:cd:00:30:92,0.8651940226554871,-0.11809727549552917,-0.09124138206243515,0.4787144362926483,-0.010792099870741367,0.004827768076211214,0.0721273422241211,0,0,0
48817872,d4:22:cd:00:30:92,0.8652092218399048,-0.11808685958385468,-0.091252401471138,0.4786875545978546,0.036502402275800705,-0.015355340205132961,0.08676815032958984,0,0,0
48834539,d4:22:cd:00:30:92,0.8652082681655884,-0.11809156835079193,-0.0912482738494873,0.4786885976791382,0.01146342046558857,-0.023915328085422516,0.10649299621582031,0,0,0
48851206,d4:22:cd:00:30:92,0.8652226328849792,-0.11808979511260986,-0.09124188870191574,0.4786642789840698,0.009353402070701122,0.006879952270537615,0.09480953216552734,0,0,0
48867873,d4:22:cd:00:30:92,0.8652141690254211,-0.1180880069732666,-0.09124388545751572,0.4786796569824219,0.013367303647100925,-0.01834147237241268,0.10992145538330078,0,0,0
48884540,d4:22:cd:00:30:92,0.865203857421875,-0.11809748411178589,-0.0912335216999054,0.4786980450153351,-0.020181823521852493,0.016655290499329567,0.09040641784667969,0,0,0
48901207,d4:22:cd:00:30:92,0.8652022480964661,-0.11809303611516953,-0.09123855084180832,0.47870102524757385,-0.016631096601486206,0.005747300572693348,0.08640003204345703,0,0,0
48917874,d4:22:cd:00:30:92,0.8652006983757019,-0.11811114847660065,-0.09122500568628311,0.47870194911956787,-0.00012108814553357661,-0.0066963364370167255,0.0763845443725586,0,0,0
48934541,d4:22:cd:00:30:92,0.8651984333992004,-0.11809415370225906,-0.09124288707971573,0.47870686650276184,-0.03654526174068451,0.02487933821976185,0.09119033813476562,0,0,0
48951208,d4:22:cd:00:30:92,0.8652129769325256,-0.11809739470481873,-0.09124454110860825,0.478679358959198,0.014644624665379524,-0.011327189393341541,0.12012004852294922,0,0,0
48967875,d4:22:cd:00:30:92,0.8652154207229614,-0.11810202896595001,-0.09123238921165466,0.4786761403083801,0.02748248167335987,0.0023595145903527737,0.1296539306640625,0,0,0
48984542,d4:22:cd:00:30:92,0.8652085661888123,-0.11811798065900803,-0.09121853858232498,0.4786871671676636,-0.011888653971254826,-0.028590884059667587,0.09213638305664062,0,0,0
49001209,d4:22:cd:00:30:92,0.8652101159095764,-0.11810985207557678,-0.09121715277433395,0.4786866307258606,0.018935570493340492,0.012196320109069347,0.08119678497314453,0,0,0
49017876,d4:22:cd:00:30:92,0.865206241607666,-0.11811350286006927,-0.09123136103153229,0.4786902964115143,0.01265793014317751,-0.033152781426906586,0.0792226791381836,0,0,0
49034543,d4:22:cd:00:30:92,0.8652072548866272,-0.1180996298789978,-0.09122120589017868,0.4786936640739441,0.007044178433716297,0.006682590581476688,0.08046340942382812,0,0,0
49051210,d4:22:cd:00:30:92,0.865199863910675,-0.11808640509843826,-0.09123720228672028,0.47870728373527527,-0.00303653534501791,-0.00117970141582191,0.10593128204345703,0,0,0
49067877,d4:22:cd:00:30:92,0.8651940822601318,-0.11808689683675766,-0.09123026579618454,0.4787188768386841,-0.013328133150935173,0.012264379300177097,0.10906219482421875,0,0,0
49084544,d4:22:cd:00:30:92,0.8652035593986511,-0.11808785051107407,-0.09123517572879791,0.47870072722435,-0.02996465004980564,0.024904819205403328,0.10130500793457031,0,0,0
49101211,d4:22:cd:00:30:92,0.8652138113975525,-0.11810079962015152,-0.09121052920818329,0.4786835014820099,-0.012206824496388435,-0.002841631881892681,0.0867166519165039,0,0,0
49117878,d4:22:cd:00:30:92,0.8652205467224121,-0.11809512972831726,-0.09121065586805344,0.47867265343666077,0.002239767462015152,0.006769425235688686,0.07886600494384766,0,0,0
49134545,d4:22:cd:00:30:92,0.8652361035346985,-0.11809045076370239,-0.0912121906876564,0.4786455035209656,-0.002713223686441779,-0.016007885336875916,0.08614444732666016,0,0,0
49151212,d4:22:cd:00:30:92,0.8652384877204895,-0.1180974468588829,-0.09119895100593567,0.4786420166492462,0.034065887331962585,-0.0019779778085649014,0.11043071746826172,0,0,0
49167879,d4:22:cd:00:30:92,0.865241527557373,-0.11810266226530075,-0.09121321141719818,0.47863253951072693,0.01214670017361641,-0.008972592651844025,0.10327625274658203,0,0,0
49184546,d4:22:cd:00:30:92,0.8652281761169434,-0.1181182861328125,-0.09119046479463577,0.4786571264266968,0.007498245220631361,-0.008224718272686005,0.10634040832519531,0,0,0
49201213,d4:22:cd:00:30:92,0.8652136325836182,-0.11811584234237671,-0.09118581563234329,0.47868481278419495,0.00388024072162807,0.014412003569304943,0.08208465576171875,0,0,0
49217880,d4:22:cd:00:30:92,0.8651966452598572,-0.11811719834804535,-0.0911933034658432,0.47871384024620056,-0.04639603570103645,0.006161805242300034,0.07065105438232422,0,0,0
49234547,d4:22:cd:00:30:92,0.8651970028877258,-0.11810985207557678,-0.0911988615989685,0.47871389985084534,-0.0315992571413517,0.01831766963005066,0.09613609313964844,0,0,0
49251214,d4:22:cd:00:30:92,0.8652037978172302,-0.11809737980365753,-0.09120508283376694,0.4787033498287201,-0.02067718282341957,-0.0009361840202473104,0.11046600341796875,0,0,0
49267881,d4:22:cd:00:30:92,0.8652167916297913,-0.11810379475355148,-0.09117426723241806,0.4786844551563263,-0.009528972208499908,0.009840046055614948,0.1115732192993164,0,0,0
49284548,d4:22:cd:00:30:92,0.8652445077896118,-0.11809901893138885,-0.09116031229496002,0.47863805294036865,0.020283466205000877,-0.016399703919887543,0.10103416442871094,0,0,0
49301215,d4:22:cd:00:30:92,0.8652434945106506,-0.11811050772666931,-0.09113747626543045,0.4786415696144104,0.05610823258757591,-0.01627654954791069,0.07413482666015625,0,0,0
49317882,d4:22:cd:00:30:92,0.8652400374412537,-0.11811581254005432,-0.09114185720682144,0.4786456823348999,0.03220156580209732,-0.01023722905665636,0.07008838653564453,0,0,0
49334549,d4:22:cd:00:30:92,0.8652377724647522,-0.1181173250079155,-0.09114336967468262,0.4786487817764282,0.009696327149868011,-0.006376154255121946,0.0765695571899414,0,0,0
49351216,d4:22:cd:00:30:92,0.8652167320251465,-0.118095263838768,-0.0911707878112793,0.4786871671676636,0.0015806277515366673,0.017549343407154083,0.1104288101196289,0,0,0
49367883,d4:22:cd:00:30:92,0.8651995658874512,-0.11808625608682632,-0.09118267893791199,0.4787183701992035,-0.056617118418216705,0.02325529418885708,0.12502002716064453,0,0,0
49384550,d4:22:cd:00:30:92,0.8652048110961914,-0.11808600276708603,-0.09117773175239563,0.47870996594429016,-0.03296072781085968,0.017154842615127563,0.11665725708007812,0,0,0
49401217,d4:22:cd:00:30:92,0.8652161359786987,-0.11809483915567398,-0.09117588400840759,0.4786875247955322,-0.0015885625034570694,0.0013789632357656956,0.10991477966308594,0,0,0
49417884,d4:22:cd:00:30:92,0.8652289509773254,-0.11811311542987823,-0.09115618467330933,0.47866371273994446,-0.008961305022239685,0.005186283029615879,0.074005126953125,0,0,0
49434551,d4:22:cd:00:30:92,0.8652503490447998,-0.11811676621437073,-0.09114591777324677,0.4786261022090912,0.016278617084026337,-0.009780703112483025,0.08232784271240234,0,0,0
49451218,d4:22:cd:00:30:92,0.8652568459510803,-0.11811158806085587,-0.09114988148212433,0.47861477732658386,0.02267259545624256,-0.008263162337243557,0.07317447662353516,0,0,0
49467885,d4:22:cd:00:30:92,0.8652509450912476,-0.11810396611690521,-0.09116262197494507,0.47862479090690613,0.01953844167292118,-0.008245839737355709,0.08779239654541016,0,0,0
49484552,d4:22:cd:00:30:92,0.8652431964874268,-0.11811119318008423,-0.09116362780332565,0.4786367118358612,0.015931611880660057,-0.0012950340751558542,0.11476612091064453,0,0,0
49501219,d4:22:cd:00:30:92,0.8652306199073792,-0.11810707300901413,-0.09116721898317337,0.4786599278450012,-0.004205787554383278,0.010344291105866432,0.10682010650634766,0,0,0
49517886,d4:22:cd:00:30:92,0.865233838558197,-0.11811978369951248,-0.09114871919155121,0.47865456342697144,-0.02503468096256256,0.007358270231634378,0.10542869567871094,0,0,0
49534553,d4:22:cd:00:30:92,0.8652441501617432,-0.11812087893486023,-0.0911531001329422,0.47863486409187317,-0.021346213296055794,0.022590119391679764,0.07441425323486328,0,0,0
49551220,d4:22:cd:00:30:92,0.8652570843696594,-0.11811823397874832,-0.09115049988031387,0.47861263155937195,-0.01903877779841423,-0.009128045290708542,0.08592987060546875,0,0,0
49567887,d4:22:cd:00:30:92,0.8652635216712952,-0.1181194931268692,-0.09115508943796158,0.47859981656074524,0.0056427521631121635,0.019316213205456734,0.07965278625488281,0,0,0
49584554,d4:22:cd:00:30:92,0.8652693033218384,-0.11811549961566925,-0.09116790443658829,0.47858795523643494,0.02783188968896866,-0.028942357748746872,0.0915985107421875,0,0,0
49601221,d4:22:cd:00:30:92,0.8652694821357727,-0.11812087148427963,-0.09115596860647202,0.4785883128643036,0.019806768745183945,0.007539539132267237,0.11913299560546875,0,0,0
49617888,d4:22:cd:00:30:92,0.8652743101119995,-0.11811084300279617,-0.09115790575742722,0.47858166694641113,0.01408606581389904,-0.01014625933021307,0.0905752182006836,0,0,0
49634555,d4:22:cd:00:30:92,0.86527419090271,-0.11811768263578415,-0.0911366194486618,0.478584349155426,0.013003312982618809,-0.013075843453407288,0.09538841247558594,0,0,0
49651222,d4:22:cd:00:30:92,0.8652653098106384,-0.11812397837638855,-0.09114891290664673,0.47859638929367065,-0.007365757599473,0.004403652157634497,0.0757589340209961,0,0,0
49667889,d4:22:cd:00:30:92,0.8652632236480713,-0.11811192333698273,-0.09115015715360641,0.4786031246185303,-0.03722747787833214,0.0006509814993478358,0.08990478515625,0,0,0
49684556,d4:22:cd:00:30:92,0.8652659058570862,-0.11810621619224548,-0.09115039557218552,0.4785996079444885,-0.0070083048194646835,0.024753054603934288,0.1043386459350586,0,0,0
49701223,d4:22:cd:00:30:92,0.8652693033218384,-0.11810271441936493,-0.09115748107433319,0.47859299182891846,-0.03084556944668293,0.009340159595012665,0.11505317687988281,0,0,0
49717890,d4:22:cd:00:30:92,0.8652766346931458,-0.11811511963605881,-0.091131292283535,0.4785815179347992,-0.011385079473257065,0.007372351363301277,0.10400962829589844,0,0,0
49734557,d4:22:cd:00:30:92,0.86530601978302,-0.11811772733926773,-0.09111511707305908,0.47853079438209534,0.009364745579659939,-0.0006802616990171373,0.08886337280273438,0,0,0
49751224,d4:22:cd:00:30:92,0.865311861038208,-0.11811526864767075,-0.0910966768860817,0.47852441668510437,0.028930846601724625,-0.014293765649199486,0.08596515655517578,0,0,0
49767891,d4:22:cd:00:30:92,0.8653149604797363,-0.11809435486793518,-0.09110642969608307,0.4785221815109253,0.028644302859902382,-0.006809992715716362,0.06550312042236328,0,0,0
49784558,d4:22:cd:00:30:92,0.8653047680854797,-0.11808767914772034,-0.09111540019512177,0.4785405099391937,0.01376297790557146,-0.014864281751215458,0.1074972152709961,0,0,0
49801225,d4:22:cd:00:30:92,0.8652973771095276,-0.1180792897939682,-0.09113456308841705,0.47855228185653687,0.0174556914716959,0.00913262739777565,0.1004629135131836,0,0,0
49817892,d4:22:cd:00:30:92,0.8652918934822083,-0.11809485405683517,-0.09114661067724228,0.4785560369491577,-0.003613645676523447,0.0010299476562067866,0.11435508728027344,0,0,0
49834559,d4:22:cd:00:30:92,0.865282416343689,-0.11811472475528717,-0.09113682061433792,0.47857019305229187,-0.015877019613981247,0.009644360281527042,0.10776424407958984,0,0,0
49851226,d4:22:cd:00:30:92,0.8652896881103516,-0.11812512576580048,-0.09113539755344391,0.47855472564697266,-0.03186707943677902,0.01943691074848175,0.07892227172851562,0,0,0
49867893,d4:22:cd:00:30:92,0.8653030395507812,-0.11812382191419601,-0.09112383425235748,0.4785331189632416,-0.001955123618245125,0.0006508697406388819,0.07432174682617188,0,0,0
49884560,d4:22:cd:00:30:92,0.8653156757354736,-0.11811415106058121,-0.09113642573356628,0.47851020097732544,0.013100988231599331,-0.0032207099720835686,0.07780647277832031,0,0,0
49901227,d4:22:cd:00:30:92,0.8653170466423035,-0.1181122213602066,-0.09113233536481857,0.47850900888442993,0.01830895245075226,-0.008106479421257973,0.09221839904785156,0,0,0
49917894,d4:22:cd:00:30:92,0.8653186559677124,-0.11811217665672302,-0.09113828837871552,0.4785049259662628,0.02373836189508438,-0.009763269685208797,0.09805679321289062,0,0,0
49934561,d4:22:cd:00:30:92,0.8653123378753662,-0.11811939626932144,-0.09114635735750198,0.4785129427909851,0.028807690367102623,-0.015133168548345566,0.10471343994140625,0,0,0
49951228,d4:22:cd:00:30:92,0.865289568901062,-0.11812592297792435,-0.09113549441099167,0.4785545766353607,-0.0016707592876628041,0.006587150506675243,0.08504295349121094,0,0,0
49967895,d4:22:cd:00:30:92,0.8652775287628174,-0.1181301698088646,-0.0911417081952095,0.47857433557510376,-0.014349531382322311,0.015676863491535187,0.07663345336914062,0,0,0
49984562,d4:22:cd:00:30:92,0.8652803897857666,-0.11812842637300491,-0.09114905446767807,0.4785681664943695,-0.019524360075592995,0.021517815068364143,0.0714578628540039,0,0,0
50001229,d4:22:cd:00:30:92,0.8652840852737427,-0.11812284588813782,-0.09116040915250778,0.47856074571609497,-0.02139795757830143,0.010060541331768036,0.09359931945800781,0,0,0
50017896,d4:22:cd:00:30:92,0.8653014898300171,-0.11813357472419739,-0.09116902947425842,0.4785251021385193,-0.01321928296238184,0.012030696496367455,0.10705947875976562,0,0,0
50034563,d4:22:cd:00:30:92,0.865308940410614,-0.1181323230266571,-0.09116829931735992,0.4785118103027344,0.003435673424974084,-0.0018247597618028522,0.1192789077758789,0,0,0
50051230,d4:22:cd:00:30:92,0.865321934223175,-0.1181434839963913,-0.09114960581064224,0.47848907113075256,0.01899854466319084,0.005783621221780777,0.12180042266845703,0,0,0
50067897,d4:22:cd:00:30:92,0.8653169274330139,-0.11813163012266159,-0.09114091098308563,0.4785025119781494,0.03869445249438286,-0.017818452790379524,0.0859670639038086,0,0,0
50084564,d4:22:cd:00:30:92,0.8653059005737305,-0.11813286691904068,-0.09114613384008408,0.4785214364528656,0.025377269834280014,-0.019789502024650574,0.08220672607421875,0,0,0
50101231,d4:22:cd:00:30:92,0.8653023838996887,-0.11811967939138412,-0.09115904569625854,0.4785287082195282,-0.0006206395919434726,-0.012765606865286827,0.08980274200439453,0,0,0
50117898,d4:22:cd:00:30:92,0.8652955889701843,-0.11810445040464401,-0.09117203205823898,0.478542298078537,-0.008544285781681538,0.001366558251902461,0.10797309875488281,0,0,0
50134565,d4:22:cd:00:30:92,0.8652889728546143,-0.11810993403196335,-0.09117955714464188,0.4785514771938324,-0.01713908463716507,0.010529248043894768,0.11199283599853516,0,0,0
50151232,d4:22:cd:00:30:92,0.8652805685997009,-0.11811134964227676,-0.0911758691072464,0.4785670340061188,-0.01569284498691559,0.010971133597195148,0.10187053680419922,0,0,0
50167899,d4:22:cd:00:30:92,0.8652905225753784,-0.11812049895524979,-0.09115923941135406,0.47854968905448914,-0.0153600899502635,0.005650072358548641,0.09360313415527344,0,0,0
50184566,d4:22:cd:00:30:92,0.865299642086029,-0.11813099682331085,-0.0911540538072586,0.4785315990447998,-0.006091901566833258,-0.004033514764159918,0.07953453063964844,0,0,0
50201233,d4:22:cd:00:30:92,0.8653016686439514,-0.11812908947467804,-0.09115656465291977,0.47852805256843567,0.011283883824944496,-0.004120684694498777,0.0843048095703125,0,0,0
50217900,d4:22:cd:00:30:92,0.8653032183647156,-0.11812654882669449,-0.09115104377269745,0.47852692008018494,0.026177333667874336,-0.0027447391767054796,0.09215068817138672,0,0,0
50234567,d4:22:cd:00:30:92,0.8652989864349365,-0.11812583357095718,-0.09114914387464523,0.4785352051258087,0.012594005092978477,-0.008041102439165115,0.09460926055908203,0,0,0
50251234,d4:22:cd:00:30:92,0.8652923107147217,-0.11812787503004074,-0.09115704894065857,0.47854533791542053,0.008648107759654522,-0.00046613626182079315,0.1106863021850586,0,0,0
50267901,d4:22:cd:00:30:92,0.8652861714363098,-0.11812146008014679,-0.09115379303693771,0.47855862975120544,-0.007527245674282312,0.0016966868424788117,0.09471797943115234,0,0,0
50284568,d4:22:cd:00:30:92,0.8652787208557129,-0.11813074350357056,-0.09116150438785553,0.47856801748275757,-0.0029037126805633307,0.006377048324793577,0.09229469299316406,0,0,0
50301235,d4:22:cd:00:30:92,0.8652779459953308,-0.11811845749616623,-0.09115695208311081,0.47857365012168884,-0.020191267132759094,0.01357483584433794,0.08844566345214844,0,0,0
50317902,d4:22:cd:00:30:92,0.8652872443199158,-0.11810429394245148,-0.09116426110267639,0.4785587191581726,-0.00491482624784112,-0.022765018045902252,0.08811378479003906,0,0,0
50334569,d4:22:cd:00:30:92,0.8652942776679993,-0.11808820813894272,-0.09117220342159271,0.47854843735694885,0.005519484635442495,0.0019146120175719261,0.10535907745361328,0,0,0
50351236,d4:22:cd:00:30:92,0.8652761578559875,-0.11808758974075317,-0.09117070585489273,0.47858160734176636,0.0007256348035298288,0.0026348824612796307,0.10623550415039062,0,0,0
50367903,d4:22:cd:00:30:92,0.8652768731117249,-0.11809366941452026,-0.09116525948047638,0.4785797595977783,0.012616077437996864,-0.01074192114174366,0.08774566650390625,0,0,0
50384570,d4:22:cd:00:30:92,0.8652753233909607,-0.11809655278921127,-0.09115182608366013,0.47858449816703796,0.012970345094799995,-0.015032140538096428,0.08226585388183594,0,0,0
50401237,d4:22:cd:00:30:92,0.865277886390686,-0.11809033155441284,-0.09114895015954971,0.47858214378356934,-0.009085242636501789,-0.0006035967380739748,0.09046363830566406,0,0,0
50417904,d4:22:cd:00:30:92,0.8652909994125366,-0.11807794123888016,-0.09116882085800171,0.4785577952861786,0.018424229696393013,-0.0007632967317476869,0.07636165618896484,0,0,0
50434571,d4:22:cd:00:30:92,0.8652803301811218,-0.11807431280612946,-0.0911884605884552,0.47857412695884705,-0.0181211456656456,0.0052649592980742455,0.09484386444091797,0,0,0
50451238,d4:22:cd:00:30:92,0.8652750253677368,-0.11807981133460999,-0.09119915962219238,0.4785802960395813,-0.025153644382953644,0.002956182463094592,0.09993839263916016,0,0,0
50467905,d4:22:cd:00:30:92,0.8652788996696472,-0.11808556318283081,-0.09119411557912827,0.47857287526130676,0.01537528820335865,-0.0029137148521840572,0.1201467514038086,0,0,0
50484572,d4:22:cd:00:30:92,0.8652777075767517,-0.11809272319078445,-0.09119243174791336,0.4785732924938202,-0.011060371063649654,0.011568695306777954,0.09668350219726562,0,0,0
50501239,d4:22:cd:00:30:92,0.8652752041816711,-0.11809922754764557,-0.09118092805147171,0.47857844829559326,-0.01098420936614275,0.00007342400931520388,0.10088920593261719,0,0,0
50517906,d4:22:cd:00:30:92,0.865284264087677,-0.11810870468616486,-0.09117655456066132,0.4785606563091278,0.015311755239963531,-0.007611957378685474,0.07674980163574219,0,0,0
50534573,d4:22:cd:00:30:92,0.8652852177619934,-0.11811365932226181,-0.09118283540010452,0.47855645418167114,0.017415737733244896,-0.010036625899374485,0.10338497161865234,0,0,0
50551240,d4:22:cd:00:30:92,0.865285336971283,-0.11812420189380646,-0.09118838608264923,0.47855257987976074,0.015592096373438835,-0.004565810784697533,0.08550357818603516,0,0,0
50567907,d4:22:cd:00:30:92,0.8652834296226501,-0.11810874938964844,-0.09119915217161179,0.47855785489082336,0.021340569481253624,-0.011092500761151314,0.11995506286621094,0,0,0
50584574,d4:22:cd:00:30:92,0.8652719259262085,-0.1181061714887619,-0.09119706600904465,0.47857967019081116,-0.013265103101730347,0.00619890820235014,0.12440681457519531,0,0,0
50601241,d4:22:cd:00:30:92,0.8652769327163696,-0.11812787503004074,-0.09118947386741638,0.4785666763782501,-0.02726411074399948,0.021784355863928795,0.1004180908203125,0,0,0
50617908,d4:22:cd:00:30:92,0.8652859330177307,-0.11813822388648987,-0.09118381887674332,0.47854897379875183,-0.0033349809236824512,0.0027248463593423367,0.07574272155761719,0,0,0
50634575,d4:22:cd:00:30:92,0.8652892708778381,-0.11814262717962265,-0.09118464589118958,0.478541761636734,-0.02189639024436474,0.00509564857929945,0.05434894561767578,0,0,0
50651242,d4:22:cd:00:30:92,0.8653064966201782,-0.1181395947933197,-0.09118103981018066,0.4785119593143463,-0.010439340025186539,0.011707273311913013,0.09173202514648438,0,0,0
50667909,d4:22:cd:00:30:92,0.865321934223175,-0.11813538521528244,-0.09117165207862854,0.47848689556121826,0.02432195283472538,-0.010370219126343727,0.09346961975097656,0,0,0
50684576,d4:22:cd:00:30:92,0.8653196692466736,-0.11812558025121689,-0.0911700427532196,0.47849369049072266,0.018639247864484787,-0.012402510270476341,0.12407302856445312,0,0,0
50701243,d4:22:cd:00:30:92,0.8653217554092407,-0.11814256012439728,-0.09114794433116913,0.4784899353981018,0.012224985286593437,-0.0012770412722602487,0.11067008972167969,0,0,0
50717910,d4:22:cd:00:30:92,0.8653161525726318,-0.11815138906240463,-0.09114769101142883,0.47849804162979126,0.028210967779159546,-0.012119431048631668,0.0917673110961914,0,0,0
50734577,d4:22:cd:00:30:92,0.8653081655502319,-0.11815721541643143,-0.09114393591880798,0.47851184010505676,-0.01856459490954876,0.0053520179353654385,0.06634998321533203,0,0,0
50751244,d4:22:cd:00:30:92,0.8653128147125244,-0.11814931035041809,-0.09114696830511093,0.47850483655929565,-0.026177221909165382,0.0069624288007617,0.07406902313232422,0,0,0
50767911,d4:22:cd:00:30:92,0.865308403968811,-0.11815028637647629,-0.09115321189165115,0.4785114526748657,0.003538042539730668,0.013744146563112736,0.1161642074584961,0,0,0
50784578,d4:22:cd:00:30:92,0.865321695804596,-0.11816096305847168,-0.09115920215845108,0.4784834086894989,-0.012233367189764977,0.004181927535682917,0.09589576721191406,0,0,0
50801245,d4:22:cd:00:30:92,0.8653343915939331,-0.11815523356199265,-0.09114674478769302,0.4784642159938812,0.011405475437641144,-0.00394522724673152,0.11705684661865234,0,0,0
50817912,d4:22:cd:00:30:92,0.8653335571289062,-0.11815866827964783,-0.09114441275596619,0.4784652292728424,0.03850720450282097,-0.013758116401731968,0.09756183624267578,0,0,0
50834579,d4:22:cd:00:30:92,0.8653261661529541,-0.11816393584012985,-0.09114335477352142,0.4784775674343109,0.008393973112106323,-0.011175312101840973,0.07757186889648438,0,0,0
50851246,d4:22:cd:00:30:92,0.8653165698051453,-0.11816354840993881,-0.09114836901426315,0.47849416732788086,0.020322691649198532,-0.017153725028038025,0.08662128448486328,0,0,0
50867913,d4:22:cd:00:30:92,0.8653022646903992,-0.11816687136888504,-0.09115206450223923,0.47851845622062683,0.018653441220521927,-0.0041090622544288635,0.08729171752929688,0,0,0
50884580,d4:22:cd:00:30:92,0.8652952313423157,-0.11816957592964172,-0.09116590768098831,0.4785279333591461,-0.029094960540533066,0.01606946438550949,0.11302947998046875,0,0,0
50901247,d4:22:cd:00:30:92,0.8652999997138977,-0.11817647516727448,-0.09116307646036148,0.4785180687904358,-0.018517769873142242,0.02531586028635502,0.10831356048583984,0,0,0
50917914,d4:22:cd:00:30:92,0.8652942776679993,-0.11817307025194168,-0.09115418791770935,0.47853103280067444,-0.006765793077647686,-0.005220033228397369,0.099884033203125,0,0,0
50934581,d4:22:cd:00:30:92,0.8653033971786499,-0.11817571520805359,-0.09115228056907654,0.478514164686203,-0.03525453060865402,0.025096816942095757,0.09137439727783203,0,0,0
50951248,d4:22:cd:00:30:92,0.8653253316879272,-0.11817476153373718,-0.09115078300237656,0.47847506403923035,0.006885819602757692,0.0024503725580871105,0.07731342315673828,0,0,0
50967915,d4:22:cd:00:30:92,0.865334153175354,-0.11816535145044327,-0.09113814681768417,0.47846391797065735,0.03624268248677254,-0.014373447746038437,0.0826873779296875,0,0,0
50984582,d4:22:cd:00:30:92,0.865341067314148,-0.11816127598285675,-0.09115505963563919,0.47844916582107544,0.009599266573786736,0.004460983444005251,0.1062164306640625,0,0,0
51001249,d4:22:cd:00:30:92,0.8653417825698853,-0.11815884709358215,-0.09114927798509598,0.47844958305358887,0.02367868274450302,-0.027930961921811104,0.1266469955444336,0,0,0
51017916,d4:22:cd:00:30:92,0.8653204441070557,-0.11816898733377457,-0.09114956855773926,0.4784856140613556,0.018723120912909508,-0.00487906439229846,0.09167671203613281,0,0,0
51034583,d4:22:cd:00:30:92,0.8653104305267334,-0.11817067861557007,-0.09114397317171097,0.47850435972213745,-0.029886867851018906,0.003997752908617258,0.09084224700927734,0,0,0
51051250,d4:22:cd:00:30:92,0.8653075695037842,-0.11817370355129242,-0.0911313146352768,0.47851115465164185,0.006811836734414101,0.0052835107780992985,0.08545875549316406,0,0,0
51067917,d4:22:cd:00:30:92,0.8653073906898499,-0.11815980821847916,-0.09114021062850952,0.47851309180259705,-0.017610976472496986,0.007604469545185566,0.08199310302734375,0,0,0
51084584,d4:22:cd:00:30:92,0.8653078675270081,-0.11816859245300293,-0.09114090353250504,0.47850993275642395,-0.02082386426627636,0.012509573251008987,0.1035928726196289,0,0,0
51101251,d4:22:cd:00:30:92,0.8653206825256348,-0.11815821379423141,-0.09114307165145874,0.478488951921463,0.019878068938851357,-0.0020677184220403433,0.09656333923339844,0,0,0
51117918,d4:22:cd:00:30:92,0.8653261065483093,-0.11816122382879257,-0.09113506972789764,0.47847995162010193,0.029304727911949158,-0.014411109499633312,0.10114574432373047,0,0,0
51134585,d4:22:cd:00:30:92,0.8653209209442139,-0.11816152185201645,-0.09112194180488586,0.478491872549057,0.00671812891960144,-0.0036660595797002316,0.0861959457397461,0,0,0
51151252,d4:22:cd:00:30:92,0.865328311920166,-0.11815287172794342,-0.09112391620874405,0.4784802496433258,0.016526883468031883,-0.020079733803868294,0.07707500457763672,0,0,0
51167919,d4:22:cd:00:30:92,0.8653160929679871,-0.11815027892589569,-0.09113380312919617,0.4785010516643524,-0.00040271447505801916,-0.005412925034761429,0.07492923736572266,0,0,0
51184586,d4:22:cd:00:30:92,0.865317165851593,-0.11813398450613022,-0.09113847464323044,0.4785023331642151,-0.015438933856785297,0.010430566966533661,0.08651161193847656,0,0,0
51201253,d4:22:cd:00:30:92,0.865321159362793,-0.11811575293540955,-0.09114181250333786,0.4784989356994629,-0.00760748703032732,0.018982285633683205,0.1166849136352539,0,0,0
51217920,d4:22:cd:00:30:92,0.8653188943862915,-0.1181170865893364,-0.09113769233226776,0.478503555059433,-0.0043031275272369385,-0.003177907317876816,0.0994253158569336,0,0,0
51234587,d4:22:cd:00:30:92,0.8653109073638916,-0.11810609698295593,-0.09114324301481247,0.47851958870887756,-0.012313999235630035,0.023825811222195625,0.09893989562988281,0,0,0
51251254,d4:22:cd:00:30:92,0.865300178527832,-0.11810901761054993,-0.09114222228527069,0.47853851318359375,0.0016321474686264992,-0.014286501333117485,0.0992584228515625,0,0,0
51267921,d4:22:cd:00:30:92,0.8652948141098022,-0.11811301857233047,-0.0911296084523201,0.47854945063591003,0.0008910902542993426,-0.0017859803047031164,0.08376789093017578,0,0,0
51284588,d4:22:cd:00:30:92,0.8652985095977783,-0.11810480803251266,-0.091147281229496,0.47854140400886536,0.00019065654487349093,0.003444334724918008,0.07680511474609375,0,0,0
51301255,d4:22:cd:00:30:92,0.8653054237365723,-0.11810941994190216,-0.09114944189786911,0.47852733731269836,0.023462211713194847,-0.005975954234600067,0.0949544906616211,0,0,0
51317922,d4:22:cd:00:30:92,0.8652982115745544,-0.11811208724975586,-0.09116841107606888,0.47853633761405945,-0.0022649127058684826,0.0036282858345657587,0.09465312957763672,0,0,0
51334589,d4:22:cd:00:30:92,0.8652967214584351,-0.1181064322590828,-0.0911761149764061,0.47853899002075195,-0.002699533710256219,0.0020823583472520113,0.10970783233642578,0,0,0
51351256,d4:22:cd:00:30:92,0.8652942776679993,-0.11810432374477386,-0.09117478877305984,0.4785442352294922,0.014414294622838497,-0.00022865374921821058,0.0859365463256836,0,0,0
51367923,d4:22:cd:00:30:92,0.8653003573417664,-0.1181095689535141,-0.09118423610925674,0.4785301387310028,-0.013019015081226826,-0.004478864371776581,0.0985574722290039,0,0,0
51384590,d4:22:cd:00:30:92,0.8653098344802856,-0.11810163408517838,-0.091173455119133,0.4785170257091522,-0.0018859464908018708,0.0012183691142126918,0.07916927337646484,0,0,0
51401257,d4:22:cd:00:30:92,0.8653141856193542,-0.11808577179908752,-0.09118999540805817,0.4785098135471344,-0.00681803934276104,-0.007388108875602484,0.09964561462402344,0,0,0
51417924,d4:22:cd:00:30:92,0.8653126955032349,-0.11808451265096664,-0.09119851887226105,0.4785110652446747,0.009948953054845333,-0.004743503872305155,0.09483051300048828,0,0,0
51434591,d4:22:cd:00:30:92,0.8653118014335632,-0.11807312071323395,-0.09120411425828934,0.47851449251174927,0.009790314361453056,-0.0022399351000785828,0.11253166198730469,0,0,0
51451258,d4:22:cd:00:30:92,0.8653084635734558,-0.11807496100664139,-0.09120219200849533,0.47852039337158203,0.005673485342413187,-0.014926977455615997,0.12099456787109375,0,0,0
51467925,d4:22:cd:00:30:92,0.8653040528297424,-0.11808399856090546,-0.09119919687509537,0.4785267114639282,0.0009366310550831258,0.008170739747583866,0.093963623046875,0,0,0
51484592,d4:22:cd:00:30:92,0.8653062582015991,-0.11807078123092651,-0.0912075862288475,0.47852444648742676,0.00827294122427702,-0.0008807528065517545,0.09575843811035156,0,0,0
51501259,d4:22:cd:00:30:92,0.8652952909469604,-0.1180671751499176,-0.0912095308303833,0.4785447418689728,-0.00818951427936554,0.009738794527947903,0.09955406188964844,0,0,0
51517926,d4:22:cd:00:30:92,0.8653022646903992,-0.1180596575140953,-0.0912075862288475,0.4785345196723938,-0.0067769684828817844,0.008601672947406769,0.11164474487304688,0,0,0
51534593,d4:22:cd:00:30:92,0.8653085827827454,-0.11806368082761765,-0.09119720757007599,0.47852379083633423,0.0017514475621283054,0.002097892574965954,0.1074066162109375,0,0,0
51551260,d4:22:cd:00:30:92,0.8653073906898499,-0.11808084696531296,-0.09119478613138199,0.4785221219062805,-0.004630070645362139,0.006078546401113272,0.0880899429321289,0,0,0
51567927,d4:22:cd:00:30:92,0.8653162121772766,-0.11808907985687256,-0.09119046479463577,0.4785052537918091,0.0009835687233135104,-0.015720002353191376,0.08916473388671875,0,0,0
51584594,d4:22:cd:00:30:92,0.8653157949447632,-0.11808363348245621,-0.09119214117527008,0.4785069525241852,0.024970419704914093,-0.01749134249985218,0.09142589569091797,0,0,0
51601261,d4:22:cd:00:30:92,0.8653102517127991,-0.11808077245950699,-0.09120000153779984,0.47851622104644775,0.014413456432521343,-0.0012408321490511298,0.10007381439208984,0,0,0
51617928,d4:22:cd:00:30:92,0.8653103709220886,-0.1180804893374443,-0.09120110422372818,0.47851598262786865,0.004512168001383543,-0.003354482352733612,0.11307525634765625,0,0,0
51634595,d4:22:cd:00:30:92,0.8653058409690857,-0.11807988584041595,-0.09119826555252075,0.4785245656967163,-0.0026078373193740845,-0.0026751148980110884,0.08948135375976562,0,0,0
51651262,d4:22:cd:00:30:92,0.8652997612953186,-0.11809156090021133,-0.09119513630867004,0.4785335063934326,-0.026674482971429825,0.009806854650378227,0.09869956970214844,0,0,0
51667929,d4:22:cd:00:30:92,0.8653056025505066,-0.11809983849525452,-0.09118478000164032,0.4785226881504059,-0.029499240219593048,0.01653291843831539,0.099578857421875,0,0,0
51684596,d4:22:cd:00:30:92,0.8653147220611572,-0.1180979385972023,-0.09118936210870743,0.4785059690475464,-0.01716400682926178,0.006445778533816338,0.07313346862792969,0,0,0
51701263,d4:22:cd:00:30:92,0.8653160929679871,-0.11808791756629944,-0.09119893610477448,0.47850412130355835,-0.009389779530465603,-0.0018944957992061973,0.09468841552734375,0,0,0
51717930,d4:22:cd:00:30:92,0.8653309941291809,-0.11808785051107407,-0.0911930650472641,0.47847825288772583,-0.010757398791611195,-0.0006439408170990646,0.10519790649414062,0,0,0
51734597,d4:22:cd:00:30:92,0.865341305732727,-0.11808832734823227,-0.09119857102632523,0.4784584045410156,0.022639067843556404,-0.015689268708229065,0.1079874038696289,0,0,0
51751264,d4:22:cd:00:30:92,0.8653387427330017,-0.11808236688375473,-0.09118977934122086,0.4784661829471588,0.010681572370231152,-0.00886441208422184,0.10929679870605469,0,0,0
51767931,d4:22:cd:00:30:92,0.8653316497802734,-0.11807871609926224,-0.09117770940065384,0.47848236560821533,0.01039793435484171,-0.006887887138873339,0.10437393188476562,0,0,0
51784598,d4:22:cd:00:30:92,0.8653290271759033,-0.11808360368013382,-0.09118081629276276,0.47848519682884216,0.028494829311966896,-0.009299480356276035,0.09365653991699219,0,0,0
51801265,d4:22:cd:00:30:92,0.8653131723403931,-0.11809419095516205,-0.09117889404296875,0.47851160168647766,-0.012034384533762932,-0.0020059170201420784,0.09556770324707031,0,0,0
51817932,d4:22:cd:00:30:92,0.8653090596199036,-0.11809104681015015,-0.09117763489484787,0.47852012515068054,-0.00818504486232996,0.010159669443964958,0.08613109588623047,0,0,0
51834599,d4:22:cd:00:30:92,0.8653066158294678,-0.11809327453374863,-0.09118351340293884,0.478522926568985,-0.015162336640059948,0.005783621221780777,0.08643054962158203,0,0,0
51851266,d4:22:cd:00:30:92,0.865314245223999,-0.11809144914150238,-0.09117870032787323,0.4785105884075165,-0.028772488236427307,0.008756566792726517,0.10449600219726562,0,0,0
51867933,d4:22:cd:00:30:92,0.8653316497802734,-0.11808755993843079,-0.09115913510322571,0.47848373651504517,-0.012788629159331322,-0.00010762149031506851,0.11649417877197266,0,0,0
51884600,d4:22:cd:00:30:92,0.8653430342674255,-0.11809980869293213,-0.0911354050040245,0.47846442461013794,0.023619284853339195,-0.011202245950698853,0.0910940170288086,0,0,0
51901267,d4:22:cd:00:30:92,0.8653404712677002,-0.11810297518968582,-0.09112708270549774,0.4784698784351349,0.023124370723962784,-0.017641207203269005,0.08281803131103516,0,0,0
51917934,d4:22:cd:00:30:92,0.8653385639190674,-0.11811203509569168,-0.09111704677343369,0.478473037481308,0.02333279699087143,-0.011716884560883045,0.09161853790283203,0,0,0
51934601,d4:22:cd:00:30:92,0.8653242588043213,-0.11812302470207214,-0.09112619608640671,0.47849443554878235,0.017564821988344193,-0.009468567557632923,0.07714653015136719,0,0,0
51951268,d4:22:cd:00:30:92,0.8653141260147095,-0.11810861527919769,-0.09113674610853195,0.47851428389549255,-0.000845046597532928,0.006121908314526081,0.07759571075439453,0,0,0
51967935,d4:22:cd:00:30:92,0.8653129935264587,-0.11810541898012161,-0.09114165604114532,0.47851622104644775,-0.011808245442807674,0.002409246051684022,0.09984397888183594,0,0,0
51984602,d4:22:cd:00:30:92,0.8653118014335632,-0.11810241639614105,-0.09113653749227524,0.47852009534835815,-0.015285100787878036,0.008526013232767582,0.11548900604248047,0,0,0
52001269,d4:22:cd:00:30:92,0.8653197288513184,-0.1180940642952919,-0.09113329648971558,0.47850850224494934,-0.03197906166315079,0.023683767765760422,0.118194580078125,0,0,0
52017936,d4:22:cd:00:30:92,0.8653297424316406,-0.11808904260396957,-0.09111261367797852,0.47849583625793457,0.0034850139636546373,-0.013241354376077652,0.1001272201538086,0,0,0
52034603,d4:22:cd:00:30:92,0.8653292059898376,-0.11809185147285461,-0.09111179411411285,0.4784960150718689,0.024248864501714706,-0.004258927423506975,0.0813894271850586,0,0,0
52051270,d4:22:cd:00:30:92,0.8653370141983032,-0.11808798462152481,-0.09111067652702332,0.4784829318523407,-0.0006111402763053775,-0.012803381308913231,0.09109115600585938,0,0,0
52067937,d4:22:cd:00:30:92,0.8653448224067688,-0.11808812618255615,-0.09110929816961288,0.4784690737724304,0.044053006917238235,-0.014036948792636395,0.07409000396728516,0,0,0
52084604,d4:22:cd:00:30:92,0.8653354644775391,-0.1180853620171547,-0.09112661331892014,0.47848328948020935,0.025504393503069878,-0.012028796598315239,0.09761714935302734,0,0,0
52101271,d4:22:cd:00:30:92,0.8653315305709839,-0.11808227747678757,-0.09111939370632172,0.47849252820014954,-0.007027750369161367,0.003142480505630374,0.10103893280029297,0,0,0
52117938,d4:22:cd:00:30:92,0.8653279542922974,-0.1180853620171547,-0.09112627804279327,0.4784969091415405,0.001838449970819056,0.009000754915177822,0.10208702087402344,0,0,0
52134605,d4:22:cd:00:30:92,0.8653239607810974,-0.11810137331485748,-0.09111321717500687,0.47850269079208374,-0.020676903426647186,0.00017355781164951622,0.10857677459716797,0,0,0
52151272,d4:22:cd:00:30:92,0.8653264045715332,-0.11810148507356644,-0.09109850972890854,0.47850126028060913,-0.017265817150473595,0.014079080894589424,0.08795356750488281,0,0,0
52167939,d4:22:cd:00:30:92,0.8653321862220764,-0.11809826642274857,-0.09109149873256683,0.47849273681640625,-0.0035219495184719563,-0.004565810784697533,0.08206558227539062,0,0,0
52184606,d4:22:cd:00:30:92,0.8653297424316406,-0.11809176206588745,-0.09108033776283264,0.47850096225738525,-0.00017629584181122482,-0.004168851766735315,0.07502555847167969,0,0,0
52201273,d4:22:cd:00:30:92,0.8653383851051331,-0.11806989461183548,-0.09110826253890991,0.4784853160381317,0.012964701279997826,-0.007626038510352373,0.10772991180419922,0,0,0
52217940,d4:22:cd:00:30:92,0.8653419017791748,-0.11807126551866531,-0.09110093861818314,0.47848019003868103,0.014383506029844284,-0.010636422783136368,0.1289052963256836,0,0,0
52234607,d4:22:cd:00:30:92,0.8653355240821838,-0.11807282269001007,-0.09110085666179657,0.47849133610725403,0.009383688680827618,0.007859721779823303,0.1008453369140625,0,0,0
52251274,d4:22:cd:00:30:92,0.8653284311294556,-0.11807184666395187,-0.09108462184667587,0.47850751876831055,-0.011553552001714706,0.006223718170076609,0.08806419372558594,0,0,0
52267941,d4:22:cd:00:30:92,0.865325927734375,-0.11806167662143707,-0.09109488874673843,0.4785125255584717,-0.0028595689218491316,-0.006660462357103825,0.06229877471923828,0,0,0
52284608,d4:22:cd:00:30:92,0.8653246760368347,-0.11806438863277435,-0.09110511094331741,0.47851207852363586,0.002250328427180648,-0.003639461472630501,0.09142589569091797,0,0,0
52301275,d4:22:cd:00:30:92,0.8653321266174316,-0.11805475503206253,-0.09110686182975769,0.47850069403648376,-0.00938000064343214,0.015313208103179932,0.07719993591308594,0,0,0
52317942,d4:22:cd:00:30:92,0.865347683429718,-0.11803487688302994,-0.09111836552619934,0.4784753620624542,0.018112540245056152,-0.00882920902222395,0.11594676971435547,0,0,0
52334609,d4:22:cd:00:30:92,0.865337610244751,-0.11803817003965378,-0.09111616015434265,0.47849327325820923,0.024507133290171623,-0.00595930265262723,0.12074661254882812,0,0,0
52351276,d4:22:cd:00:30:92,0.8653322458267212,-0.11804483085870743,-0.09110865741968155,0.47850269079208374,-0.003314306028187275,0.01676749438047409,0.10218524932861328,0,0,0
52367943,d4:22:cd:00:30:92,0.8653272390365601,-0.11804890632629395,-0.09108591079711914,0.4785151779651642,0.003995685372501612,-0.0009492594981566072,0.0790872573852539,0,0,0
52384610,d4:22:cd:00:30:92,0.8653194904327393,-0.1180637776851654,-0.09108412265777588,0.4785257875919342,-0.003141027642413974,-0.0020226805936545134,0.0657796859741211,0,0,0
52401277,d4:22:cd:00:30:92,0.8653263449668884,-0.11805728077888489,-0.09108734130859375,0.4785144031047821,-0.017305994406342506,0.017988992854952812,0.07440853118896484,0,0,0
52417944,d4:22:cd:00:30:92,0.865333616733551,-0.11803287267684937,-0.09109015762805939,0.4785066545009613,0.007143585942685604,-0.0009881508303806186,0.09083175659179688,0,0,0
52434611,d4:22:cd:00:30:92,0.8653437495231628,-0.118028923869133,-0.09109114855527878,0.47848910093307495,0.012024158611893654,-0.005592070519924164,0.11177921295166016,0,0,0
52451278,d4:22:cd:00:30:92,0.8653452396392822,-0.118031345307827,-0.09109926223754883,0.47848427295684814,0.004647169727832079,0.01058970857411623,0.11620521545410156,0,0,0
52467945,d4:22:cd:00:30:92,0.8653433918952942,-0.11804430186748505,-0.09108906984329224,0.47848641872406006,0.00986848771572113,-0.006775236688554287,0.1045846939086914,0,0,0
52484612,d4:22:cd:00:30:92,0.8653256297111511,-0.11805375665426254,-0.091086246073246,0.4785168766975403,-0.0023595704697072506,-0.004764402285218239,0.09184074401855469,0,0,0
52501279,d4:22:cd:00:30:92,0.8653382658958435,-0.11804340034723282,-0.09108483046293259,0.478496789932251,-0.012174694798886776,-0.001145056914538145,0.07350921630859375,0,0,0
52517946,d4:22:cd:00:30:92,0.8653390407562256,-0.11803328990936279,-0.09109721332788467,0.4784955382347107,-0.007321166805922985,0.00883703213185072,0.08964824676513672,0,0,0
52534613,d4:22:cd:00:30:92,0.8653331398963928,-0.11802306026220322,-0.091119684278965,0.4785042703151703,0.006539095193147659,0.014544658362865448,0.08123207092285156,0,0,0
52551280,d4:22:cd:00:30:92,0.8653382062911987,-0.11800836026668549,-0.09111542254686356,0.47849971055984497,-0.0006461200537160039,0.001571296132169664,0.1388559341430664,0,0,0
52567947,d4:22:cd:00:30:92,0.8653342127799988,-0.11800571531057358,-0.0911109521985054,0.47850826382637024,0.017944179475307465,-0.006679908372461796,0.11040496826171875,0,0,0
52584614,d4:22:cd:00:30:92,0.8653366565704346,-0.11801165342330933,-0.09110010415315628,0.47850459814071655,0.0051943291909992695,0.00125658989418298,0.10002326965332031,0,0,0
52601281,d4:22:cd:00:30:92,0.8653367757797241,-0.11801539361476898,-0.09108950942754745,0.47850555181503296,0.024453602731227875,-0.00015970000822562724,0.07024192810058594,0,0,0
52617948,d4:22:cd:00:30:92,0.8653424382209778,-0.11800626665353775,-0.09109359979629517,0.4784965515136719,0.01956995576620102,-0.009084348566830158,0.061412811279296875,0,0,0
52634615,d4:22:cd:00:30:92,0.8653364181518555,-0.11800291389226913,-0.09112139046192169,0.47850295901298523,-0.010572944767773151,-0.005193993914872408,0.09462833404541016,0,0,0
52651282,d4:22:cd:00:30:92,0.8653274178504944,-0.11799735575914383,-0.0911417081952095,0.47851675748825073,-0.005215674638748169,-0.0033459889236837626,0.09313774108886719,0,0,0
52667949,d4:22:cd:00:30:92,0.8653159141540527,-0.11799447983503342,-0.09113624691963196,0.47853943705558777,0.006962372921407223,-0.006909679621458054,0.1310863494873047,0,0,0
52684616,d4:22:cd:00:30:92,0.8653174638748169,-0.11800255626440048,-0.0911230817437172,0.4785372316837311,-0.008186441846191883,0.004711541347205639,0.10906600952148438,0,0,0
52701283,d4:22:cd:00:30:92,0.8653155565261841,-0.1180102750658989,-0.09110561013221741,0.47854191064834595,-0.008388664573431015,-0.000981333665549755,0.08942317962646484,0,0,0
52717950,d4:22:cd:00:30:92,0.865323007106781,-0.11799388378858566,-0.09109600633382797,0.4785342812538147,0.0004997749929316342,0.0017263023182749748,0.06812286376953125,0,0,0
52734617,d4:22:cd:00:30:92,0.8653261065483093,-0.11798857897520065,-0.09110170602798462,0.4785289764404297,-0.01022851187735796,0.006311782170087099,0.08370113372802734,0,0,0
52751284,d4:22:cd:00:30:92,0.8653296232223511,-0.11799222975969315,-0.09110525250434875,0.4785209596157074,0.010159725323319435,-0.0008172751404345036,0.11351585388183594,0,0,0
52767951,d4:22:cd:00:30:92,0.8653385043144226,-0.11798012256622314,-0.09110649675130844,0.47850775718688965,-0.01385998260229826,-0.008876817300915718,0.09819602966308594,0,0,0
52784618,d4:22:cd:00:30:92,0.865351676940918,-0.11798345297574997,-0.0910690575838089,0.4784902334213257,0.041078440845012665,0.01926972158253193,0.13674545288085938,0,0,0
52801285,d4:22:cd:00:30:92,0.8653302788734436,-0.11799053102731705,-0.09109905362129211,0.4785214066505432,-0.0010588925797492266,-0.03180019557476044,0.03849601745605469,0,0,0
52817952,d4:22:cd:00:30:92,0.8653371334075928,-0.1179826483130455,-0.0910998284816742,0.4785107672214508,-0.006400181911885738,0.0653751939535141,0.12474727630615234,0,0,0
52834619,d4:22:cd:00:30:92,0.8653349280357361,-0.11797913163900375,-0.09107863903045654,0.4785195589065552,0.011398546397686005,-0.11779814213514328,0.02190685272216797,0,0,0
52851286,d4:22:cd:00:30:92,0.8653092384338379,-0.11795713007450104,-0.09115424752235413,0.47855716943740845,0.0158611498773098,0.10791216790676117,0.12307167053222656,0,0,0
52867953,d4:22:cd:00:30:92,0.8653223514556885,-0.11796664446592331,-0.09109684824943542,0.4785420298576355,-0.06507428735494614,-0.0801720842719078,0.1242074966430664,0,0,0
52884620,d4:22:cd:00:30:92,0.8653274178504944,-0.11795772612094879,-0.09110666811466217,0.4785332679748535,0.056357115507125854,0.07940420508384705,0.0941314697265625,0,0,0
52901287,d4:22:cd:00:30:92,0.8653182983398438,-0.1179625391960144,-0.09112397581338882,0.478545218706131,-0.060148902237415314,-0.07602390646934509,0.104888916015625,0,0,0
52917954,d4:22:cd:00:30:92,0.8653315305709839,-0.11798390001058578,-0.09106390178203583,0.4785274267196655,0.020718030631542206,0.04243885353207588,0.07171249389648438,0,0,0
52934621,d4:22:cd:00:30:92,0.8653405904769897,-0.11795612424612045,-0.09111692011356354,0.4785078465938568,0.017958372831344604,-0.042828768491744995,0.08052444458007812,0,0,0
52951288,d4:22:cd:00:30:92,0.8653345108032227,-0.11798467487096786,-0.09107331931591034,0.478520005941391,0.009636648930609226,0.006825191434472799,0.0997476577758789,0,0,0
52967955,d4:22:cd:00:30:92,0.8653305172920227,-0.11793433129787445,-0.09113701432943344,0.4785274267196655,0.004748644307255745,0.028087643906474113,0.09872722625732422,0,0,0
52984622,d4:22:cd:00:30:92,0.8653488159179688,-0.11794227361679077,-0.09109527617692947,0.47850051522254944,0.0009785955771803856,-0.012115966528654099,0.15280628204345703,0,0,0
53001289,d4:22:cd:00:30:92,0.8653478026390076,-0.11794877052307129,-0.09108678996562958,0.47850239276885986,0.03895188122987747,0.01547536626458168,0.055011749267578125,0,0,0
53017956,d4:22:cd:00:30:92,0.8653432726860046,-0.11793584376573563,-0.09111364185810089,0.47850874066352844,-0.04411296546459198,-0.02573125809431076,0.12928390502929688,0,0,0
53034623,d4:22:cd:00:30:92,0.8653736710548401,-0.1179494559764862,-0.09106411039829254,0.47845983505249023,0.011731916107237339,0.020504184067249298,0.025803565979003906,0,0,0
53051290,d4:22:cd:00:30:92,0.8653621673583984,-0.11791577935218811,-0.09112637490034103,0.47847694158554077,0.05132919177412987,-0.02043701894581318,0.12562179565429688,0,0,0
53067957,d4:22:cd:00:30:92,0.8653458952903748,-0.11794492602348328,-0.0911012589931488,0.4785040616989136,-0.05040748044848442,-0.0009661347721703351,0.0780649185180664,0,0,0
53084624,d4:22:cd:00:30:92,0.8653785586357117,-0.1179136410355568,-0.09111727029085159,0.4784494936466217,0.05588220804929733,0.01120883971452713,0.10848617553710938,0,0,0
53101291,d4:22:cd:00:30:92,0.8653550148010254,-0.11793932318687439,-0.09111161530017853,0.4784868359565735,0.026812447234988213,-0.04873744770884514,0.12388801574707031,0,0,0
53117958,d4:22:cd:00:30:92,0.8653435707092285,-0.11794454604387283,-0.09109895676374435,0.4785086214542389,-0.054140035063028336,0.058272622525691986,0.07021141052246094,0,0,0
53134625,d4:22:cd:00:30:92,0.8653629422187805,-0.11792514473199844,-0.09109806269407272,0.4784786105155945,0.026093684136867523,-0.057881586253643036,0.1077432632446289,0,0,0
53151292,d4:22:cd:00:30:92,0.8653320670127869,-0.11794891208410263,-0.09109082072973251,0.4785299599170685,0.02216404676437378,0.03144950047135353,0.07657909393310547,0,0,0
53167959,d4:22:cd:00:30:92,0.8653402924537659,-0.11792662739753723,-0.09112618863582611,0.4785139262676239,-0.06911562383174896,-0.004168963525444269,0.10289859771728516,0,0,0
53184626,d4:22:cd:00:30:92,0.8653560876846313,-0.11791961640119553,-0.09110575169324875,0.47849103808403015,0.05370708927512169,-0.003395944135263562,0.09923267364501953,0,0,0
53201293,d4:22:cd:00:30:92,0.8653357625007629,-0.11790868639945984,-0.09113557636737823,0.47852474451065063,0.008810042403638363,-0.0031164411921054125,0.10527420043945312,0,0,0
53217960,d4:22:cd:00:30:92,0.8653451204299927,-0.1179145947098732,-0.0911131277680397,0.47851070761680603,-0.04823258891701698,0.007610169239342213,0.09097003936767578,0,0,0
53234627,d4:22:cd:00:30:92,0.8653601408004761,-0.11789488792419434,-0.09112793207168579,0.47848549485206604,0.034715864807367325,0.0018097844440490007,0.09343624114990234,0,0,0
53251294,d4:22:cd:00:30:92,0.8653455972671509,-0.11790047585964203,-0.09111368656158447,0.47851327061653137,0.016650822013616562,-0.017334770411252975,0.0899810791015625,0,0,0
53267961,d4:22:cd:00:30:92,0.865352213382721,-0.11788828670978546,-0.09114048629999161,0.4784991145133972,-0.009539086371660233,0.00467667356133461,0.08249664306640625,0,0,0
53284628,d4:22:cd:00:30:92,0.8653544783592224,-0.1178845539689064,-0.09113144874572754,0.47849759459495544,0.001436350168660283,-0.018856894224882126,0.13364219665527344,0,0,0
53301295,d4:22:cd:00:30:92,0.8653467893600464,-0.11788341403007507,-0.0911429300904274,0.47850972414016724,0.013490683399140835,0.014273202046751976,0.07643890380859375,0,0,0
53317962,d4:22:cd:00:30:92,0.8653473854064941,-0.1178876981139183,-0.09114598482847214,0.4785071015357971,-0.013299300335347652,-0.018016261979937553,0.12201499938964844,0,0,0
53334629,d4:22:cd:00:30:92,0.8653552532196045,-0.11788911372423172,-0.09112302958965302,0.478496789932251,-0.017045097425580025,0.013970454223453999,0.08656787872314453,0,0,0
53351296,d4:22:cd:00:30:92,0.8653631806373596,-0.11788403987884521,-0.09113013744354248,0.4784823954105377,-0.016400709748268127,0.007404984440654516,0.08921146392822266,0,0,0
53367963,d4:22:cd:00:30:92,0.8653686046600342,-0.1178954541683197,-0.09111080318689346,0.478473424911499,-0.009707614779472351,0.002374713309109211,0.10602664947509766,0,0,0
53384630,d4:22:cd:00:30:92,0.8653784990310669,-0.11787841469049454,-0.09113682806491852,0.4784545302391052,0.018904725089669228,-0.0007578206714242697,0.07875728607177734,0,0,0
53401297,d4:22:cd:00:30:92,0.8653777241706848,-0.1178898736834526,-0.09113581478595734,0.47845327854156494,0.01987857185304165,-0.011105017736554146,0.138458251953125,0,0,0
53417964,d4:22:cd:00:30:92,0.8653818368911743,-0.11788493394851685,-0.09113458544015884,0.4784476161003113,0.01576945371925831,0.0043859947472810745,0.09741973876953125,0,0,0
53434631,d4:22:cd:00:30:92,0.865387499332428,-0.11788730323314667,-0.09112131595611572,0.47843918204307556,0.026606256142258644,-0.022726237773895264,0.13498687744140625,0,0,0
53451298,d4:22:cd:00:30:92,0.8653784394264221,-0.11790483444929123,-0.09110847115516663,0.47845372557640076,-0.009485499002039433,-0.018792076036334038,0.0621337890625,0,0,0
53467965,d4:22:cd:00:30:92,0.8653688430786133,-0.11789421737194061,-0.09112653881311417,0.4784702658653259,-0.017702952027320862,0.02346763014793396,0.0950021743774414,0,0,0
53484632,d4:22:cd:00:30:92,0.8653607368469238,-0.11789559572935104,-0.09110954403877258,0.4784879684448242,-0.013782591558992863,-0.01949535869061947,0.09328079223632812,0,0,0
53501299,d4:22:cd:00:30:92,0.8653599619865417,-0.11788614839315414,-0.09112528711557388,0.47848862409591675,-0.000021904270397499204,0.010674978606402874,0.07014751434326172,0,0,0
53517966,d4:22:cd:00:30:92,0.8653678297996521,-0.11788207292556763,-0.0911269411444664,0.47847509384155273,-0.031428493559360504,-0.006569269113242626,0.12952899932861328,0,0,0
53534633,d4:22:cd:00:30:92,0.8653718829154968,-0.11788009107112885,-0.0911160260438919,0.47847023606300354,0.022557206451892853,-0.0025253610219806433,0.07110595703125,0,0,0
53551300,d4:22:cd:00:30:92,0.8653735518455505,-0.1178811639547348,-0.09112076461315155,0.4784659147262573,0.029933972284197807,-0.020151928067207336,0.12286949157714844,0,0,0
53567967,d4:22:cd:00:30:92,0.865375816822052,-0.11789681017398834,-0.09110604226589203,0.47846081852912903,0.01572251506149769,-0.005921081639826298,0.06173419952392578,0,0,0
53584634,d4:22:cd:00:30:92,0.8653700351715088,-0.11789169907569885,-0.09113162010908127,0.4784679114818573,0.021579449996352196,-0.02884669415652752,0.09971809387207031,0,0,0
53601301,d4:22:cd:00:30:92,0.8653621673583984,-0.11790748685598373,-0.09112834185361862,0.4784785807132721,0.0167416799813509,-0.005557314492762089,0.0935821533203125,0,0,0
53617968,d4:22:cd:00:30:92,0.8653519749641418,-0.11788216233253479,-0.09114890545606613,0.4784996807575226,-0.02300071157515049,0.008206389844417572,0.0899972915649414,0,0,0
53634635,d4:22:cd:00:30:92,0.8653611540794373,-0.11788853257894516,-0.09113514423370361,0.4784838557243347,-0.011169557459652424,-0.008519642986357212,0.1205902099609375,0,0,0
53651302,d4:22:cd:00:30:92,0.8653551936149597,-0.11788539588451385,-0.09114879369735718,0.47849273681640625,-0.010195431299507618,0.0049027567729353905,0.07092094421386719,0,0,0
53667969,d4:22:cd:00:30:92,0.8653647303581238,-0.11789439618587494,-0.09113825857639313,0.47847551107406616,-0.006279205437749624,-0.0033862213604152203,0.11680793762207031,0,0,0
53684636,d4:22:cd:00:30:92,0.8653805255889893,-0.11789160221815109,-0.09114117175340652,0.478446900844574,0.022553015500307083,-0.004811004735529423,0.07587528228759766,0,0,0
53701303,d4:22:cd:00:30:92,0.8653797507286072,-0.11788851022720337,-0.09115370362997055,0.4784466028213501,0.017133664339780807,-0.015328182838857174,0.10825538635253906,0,0,0
53717970,d4:22:cd:00:30:92,0.8653843998908997,-0.117884561419487,-0.09114977717399597,0.4784400761127472,0.01695077493786812,-0.004833356011658907,0.09044265747070312,0,0,0
53734637,d4:22:cd:00:30:92,0.8653834462165833,-0.11787809431552887,-0.0911589115858078,0.4784415066242218,0.012682460248470306,-0.014165244996547699,0.09777164459228516,0,0,0
53751304,d4:22:cd:00:30:92,0.8653675317764282,-0.1178831160068512,-0.09116307646036148,0.47846856713294983,-0.007560325786471367,0.006771101616322994,0.08720588684082031,0,0,0
53767971,d4:22:cd:00:30:92,0.8653647899627686,-0.11787835508584976,-0.09116119146347046,0.47847503423690796,-0.026963988319039345,0.012148264795541763,0.08895015716552734,0,0,0
53784638,d4:22:cd:00:30:92,0.8653679490089417,-0.11787974834442139,-0.09116136282682419,0.4784688651561737,-0.0027700518257915974,-0.01691054366528988,0.1256847381591797,0,0,0
53801305,d4:22:cd:00:30:92,0.8653721809387207,-0.11787711083889008,-0.09117117524147034,0.4784599244594574,-0.009701356291770935,0.008390005677938461,0.0847158432006836,0,0,0
53817972,d4:22:cd:00:30:92,0.86537766456604,-0.11786744743585587,-0.09116994589567184,0.47845256328582764,-0.007338377181440592,-0.010344849899411201,0.11568737030029297,0,0,0
53834639,d4:22:cd:00:30:92,0.8653885126113892,-0.1178746446967125,-0.0911601111292839,0.47843316197395325,0.025929179042577744,-0.000574540055822581,0.08298397064208984,0,0,0
53851306,d4:22:cd:00:30:92,0.8653180599212646,-0.11813400685787201,-0.09122981131076813,0.4784832000732422,0.026077313348650932,-0.018442165106534958,0.09613990783691406,0,0,0
53867973,d4:22:cd:00:30:92,0.8653173446655273,-0.118132084608078,-0.09122724086046219,0.4784854054450989,0.013096517883241177,-0.02057492546737194,0.0964813232421875,0,0,0
53884640,d4:22:cd:00:30:92,0.8653106093406677,-0.11813735961914062,-0.09124794602394104,0.4784923791885376,0.018464460968971252,-0.005804072599858046,0.09126567840576172,0,0,0
53901307,d4:22:cd:00:30:92,0.8652997612953186,-0.11814245581626892,-0.09124403446912766,0.4785115718841553,-0.016270849853754044,-0.0026838318444788456,0.10146617889404297,0,0,0
53917974,d4:22:cd:00:30:92,0.8652997612953186,-0.11813465505838394,-0.09125325083732605,0.47851186990737915,0.0007841952028684318,0.02170221321284771,0.07573890686035156,0,0,0
53934641,d4:22:cd:00:30:92,0.8652892112731934,-0.11813419312238693,-0.09124395251274109,0.478532612323761,-0.010768798179924488,-0.007291215937584639,0.11176395416259766,0,0,0
53951308,d4:22:cd:00:30:92,0.8652891516685486,-0.118137426674366,-0.09123895317316055,0.478532999753952,-0.016156243160367012,0.0343770757317543,0.07841682434082031,0,0,0
53967975,d4:22:cd:00:30:92,0.8653005361557007,-0.11813317239284515,-0.09124229103326797,0.4785127639770508,-0.00011482978152344003,-0.018404057249426842,0.09909725189208984,0,0,0
53984642,d4:22:cd:00:30:92,0.8653000593185425,-0.11814077943563461,-0.09123393148183823,0.4785131812095642,0.023370850831270218,0.004697124939411879,0.10559463500976562,0,0,0
54001309,d4:22:cd:00:30:92,0.8652997016906738,-0.11812307685613632,-0.09124597907066345,0.47851595282554626,0.0014876463683322072,-0.020225686952471733,0.09302330017089844,0,0,0
54017976,d4:22:cd:00:30:92,0.8653036952018738,-0.11812686920166016,-0.09124591201543808,0.4785078167915344,0.007361957803368568,-0.00897214561700821,0.11768245697021484,0,0,0
54034643,d4:22:cd:00:30:92,0.8652992248535156,-0.11811114847660065,-0.09126323461532593,0.4785163700580597,0.021862808614969254,-0.002577439649030566,0.0916280746459961,0,0,0
54051310,d4:22:cd:00:30:92,0.8652892112731934,-0.11812503635883331,-0.09126120805740356,0.4785316288471222,-0.007933592423796654,-0.008964434266090393,0.10545158386230469,0,0,0
54067977,d4:22:cd:00:30:92,0.8652883172035217,-0.11812417954206467,-0.0912548378109932,0.4785345792770386,0.004237581975758076,0.008043337613344193,0.07344245910644531,0,0,0
54084644,d4:22:cd:00:30:92,0.865289568901062,-0.11811845749616623,-0.09126303344964981,0.47853222489356995,-0.011079258285462856,-0.0022845258936285973,0.09175586700439453,0,0,0
54101311,d4:22:cd:00:30:92,0.8652887344360352,-0.1181219294667244,-0.09126076102256775,0.4785333275794983,-0.009656374342739582,0.0147445909678936,0.09702682495117188,0,0,0
54117978,d4:22:cd:00:30:92,0.8652971386909485,-0.11811375617980957,-0.09125988930463791,0.4785202443599701,-0.0024656273890286684,0.0021244906820356846,0.1022939682006836,0,0,0
54134645,d4:22:cd:00:30:92,0.8653057217597961,-0.11812426149845123,-0.09125600010156631,0.4785027801990509,0.00960518978536129,-0.0033587291836738586,0.11122894287109375,0,0,0
54151312,d4:22:cd:00:30:92,0.8653081059455872,-0.11812771111726761,-0.09126223623752594,0.4784967005252838,0.009908609092235565,0.0029448948334902525,0.08668804168701172,0,0,0
54167979,d4:22:cd:00:30:92,0.8653033375740051,-0.11812928318977356,-0.09125809371471405,0.4785056710243225,0.0024614364374428988,-0.01412456575781107,0.07988739013671875,0,0,0
54184646,d4:22:cd:00:30:92,0.8652970194816589,-0.1181202307343483,-0.09125903248786926,0.47851911187171936,0.010658439248800278,0.004496298264712095,0.090850830078125,0,0,0
54201313,d4:22:cd:00:30:92,0.8652898669242859,-0.11811275780200958,-0.09127325564622879,0.4785311222076416,-0.012568860314786434,-0.01687377505004406,0.1021575927734375,0,0,0
54217980,d4:22:cd:00:30:92,0.865289568901062,-0.11811839044094086,-0.091273233294487,0.47853031754493713,0.008672023192048073,0.003982889000326395,0.10028648376464844,0,0,0
54234647,d4:22:cd:00:30:92,0.8652825951576233,-0.11811841279268265,-0.09129028022289276,0.4785396456718445,-0.008335133083164692,0.005567148793488741,0.10959053039550781,0,0,0
54251314,d4:22:cd:00:30:92,0.8652816414833069,-0.11812908202409744,-0.09127221256494522,0.4785422086715698,-0.02581060491502285,0.009292327798902988,0.0899362564086914,0,0,0
54267981,d4:22:cd:00:30:92,0.8652856945991516,-0.11812671273946762,-0.09126880019903183,0.4785362184047699,-0.0023715284187346697,0.00513431616127491,0.0786752700805664,0,0,0
54284648,d4:22:cd:00:30:92,0.8652922511100769,-0.11812722682952881,-0.09126187115907669,0.47852542996406555,-0.0007097654161043465,-0.002893710508942604,0.0974273681640625,0,0,0
54301315,d4:22:cd:00:30:92,0.8652992844581604,-0.11812738329172134,-0.0912616178393364,0.47851258516311646,0.005797199439257383,0.017618631944060326,0.07228755950927734,0,0,0
54317982,d4:22:cd:00:30:92,0.865297794342041,-0.11812703311443329,-0.09126420319080353,0.4785148799419403,0.014081483706831932,-0.01576012186706066,0.12186241149902344,0,0,0
54334649,d4:22:cd:00:30:92,0.8652891516685486,-0.11813430488109589,-0.0912630632519722,0.4785292148590088,0.01243128813803196,0.0077180140651762486,0.09481525421142578,0,0,0
54351316,d4:22:cd:00:30:92,0.8652809858322144,-0.11813201755285263,-0.09127378463745117,0.4785423278808594,-0.011086521670222282,-0.002136225113645196,0.11140251159667969,0,0,0
54367983,d4:22:cd:00:30:92,0.8652753233909607,-0.11813969165086746,-0.09127259254455566,0.47855088114738464,-0.009964095428586006,0.0030474874656647444,0.08831310272216797,0,0,0
54384650,d4:22:cd:00:30:92,0.8652752041816711,-0.11813818663358688,-0.09128344804048538,0.47854936122894287,-0.016289399936795235,0.010886534117162228,0.08620548248291016,0,0,0
54401317,d4:22:cd:00:30:92,0.8652768731117249,-0.11814484000205994,-0.09128542989492416,0.47854432463645935,-0.03244927525520325,0.00012919049186166376,0.10202503204345703,0,0,0
54417984,d4:22:cd:00:30:92,0.8652853965759277,-0.11813660711050034,-0.09129597991704941,0.47852903604507446,-0.0006232099840417504,0.005070950370281935,0.0983572006225586,0,0,0
54434651,d4:22:cd:00:30:92,0.8652965426445007,-0.11814069002866745,-0.09128294885158539,0.4785103499889374,0.001061630668118596,-0.006852907128632069,0.1174936294555664,0,0,0
54451318,d4:22:cd:00:30:92,0.8652987480163574,-0.11814285814762115,-0.09125886857509613,0.47851043939590454,0.015427199192345142,-0.00355352065525949,0.09280872344970703,0,0,0
54467985,d4:22:cd:00:30:92,0.8652986884117126,-0.11814781278371811,-0.091251902282238,0.47851067781448364,0.015241851098835468,-0.02260163053870201,0.09925556182861328,0,0,0
54484652,d4:22:cd:00:30:92,0.8652836680412292,-0.1181536465883255,-0.0912550538778305,0.4785356819629669,-0.002517370507121086,-0.006731763016432524,0.08281517028808594,0,0,0
54501319,d4:22:cd:00:30:92,0.8652859330177307,-0.11815112084150314,-0.09127359837293625,0.47852861881256104,-0.008396375924348831,0.006661579944193363,0.08454608917236328,0,0,0
54517986,d4:22:cd:00:30:92,0.8652821183204651,-0.11815221607685089,-0.09127414971590042,0.4785350561141968,0.005852519068866968,0.0014472464099526405,0.11050796508789062,0,0,0
54534653,d4:22:cd:00:30:92,0.865289568901062,-0.11815379559993744,-0.0912860557436943,0.47851887345314026,-0.009012489579617977,0.023501046001911163,0.0959920883178711,0,0,0
54551320,d4:22:cd:00:30:92,0.865297257900238,-0.1181633323431015,-0.09127222001552582,0.47850555181503296,-0.016655011102557182,0.005301727447658777,0.10657501220703125,0,0,0
54567987,d4:22:cd:00:30:92,0.8653003573417664,-0.11815602332353592,-0.09126562625169754,0.4785030484199524,0.014824552461504936,0.007343071047216654,0.08301162719726562,0,0,0
54584654,d4:22:cd:00:30:92,0.8653008341789246,-0.11816059052944183,-0.09125904738903046,0.47850215435028076,0.010245945304632187,-0.015895012766122818,0.09369850158691406,0,0,0
54601321,d4:22:cd:00:30:92,0.865315318107605,-0.11816065013408661,-0.09125946462154388,0.4784758388996124,-0.0018691829172894359,0.004333357326686382,0.08028221130371094,0,0,0
54617988,d4:22:cd:00:30:92,0.865312933921814,-0.11816001683473587,-0.09126466512680054,0.4784793555736542,0.019152769818902016,-0.008412916213274002,0.10371208190917969,0,0,0
54634655,d4:22:cd:00:30:92,0.8653078079223633,-0.11816084384918213,-0.09126817435026169,0.47848770022392273,-0.00577574223279953,0.010109267197549343,0.10852527618408203,0,0,0
54651322,d4:22:cd:00:30:92,0.8652980923652649,-0.11816148459911346,-0.09127482771873474,0.4785037636756897,-0.00500194076448679,0.0017809512792155147,0.1005849838256836,0,0,0
54667989,d4:22:cd:00:30:92,0.8652932047843933,-0.11817281693220139,-0.09126479178667068,0.478511780500412,0.0011791985016316175,-0.011276228353381157,0.09709548950195312,0,0,0
54684656,d4:22:cd:00:30:92,0.8652878999710083,-0.11817165464162827,-0.09126152098178864,0.47852227091789246,-0.023342519998550415,0.018164897337555885,0.07370948791503906,0,0,0
54701323,d4:22:cd:00:30:92,0.8652819991111755,-0.11817532777786255,-0.09125171601772308,0.4785338342189789,-0.022830786183476448,0.0008007351425476372,0.09485340118408203,0,0,0
54717990,d4:22:cd:00:30:92,0.8652895092964172,-0.11817239224910736,-0.0912604108452797,0.47851961851119995,-0.002578333718702197,0.017847398295998573,0.08746051788330078,0,0,0
54734657,d4:22:cd:00:30:92,0.865294337272644,-0.11817426234483719,-0.0912647619843483,0.47850945591926575,-0.006567257456481457,-0.00043227404239587486,0.11910247802734375,0,0,0
54751324,d4:22:cd:00:30:92,0.8653031587600708,-0.11819428205490112,-0.09124689549207687,0.4784918427467346,0.006935160141438246,0.012479063123464584,0.09075641632080078,0,0,0
54767991,d4:22:cd:00:30:92,0.8653004169464111,-0.11818820983171463,-0.09126244485378265,0.4784955680370331,0.0213449839502573,-0.02223719283938408,0.07819271087646484,0,0,0
54784658,d4:22:cd:00:30:92,0.8653035163879395,-0.11819051206111908,-0.0912710428237915,0.4784877300262451,0.006426164880394936,-0.016425520181655884,0.0853433609008789,0,0,0
54801325,d4:22:cd:00:30:92,0.865304708480835,-0.11817392706871033,-0.09129270166158676,0.4784856140613556,0.004081290680915117,-0.006281720008701086,0.06820964813232422,0,0,0
54817992,d4:22:cd:00:30:92,0.8652953505516052,-0.11817280948162079,-0.09130942821502686,0.4784996211528778,0.003928519785404205,-0.015595057979226112,0.11244869232177734,0,0,0
54834659,d4:22:cd:00:30:92,0.8652881383895874,-0.11817406117916107,-0.09131218492984772,0.47851186990737915,-0.030404075980186462,0.030942685902118683,0.11179161071777344,0,0,0
54851326,d4:22:cd:00:30:92,0.8652921319007874,-0.11817646026611328,-0.0913052186369896,0.4785051941871643,-0.010772821493446827,-0.012056959792971611,0.11104488372802734,0,0,0
54867993,d4:22:cd:00:30:92,0.8652962446212769,-0.11818394809961319,-0.09129799902439117,0.47849732637405396,0.00408905791118741,0.0013772868551313877,0.09347820281982422,0,0,0
54884660,d4:22:cd:00:30:92,0.8652993440628052,-0.11817742884159088,-0.09130274504423141,0.47849240899086,-0.00995755847543478,-0.0075938524678349495,0.08200359344482422,0,0,0
54901327,d4:22:cd:00:30:92,0.8653028607368469,-0.11818116158246994,-0.09129225462675095,0.47848719358444214,0.011901059187948704,-0.0012673184974119067,0.08202171325683594,0,0,0
54917994,d4:22:cd:00:30:92,0.8652987480163574,-0.11816959083080292,-0.09130557626485825,0.4784949719905853,0.023841120302677155,-0.010611613281071186,0.1015634536743164,0,0,0
54934661,d4:22:cd:00:30:92,0.8652908205986023,-0.11816788464784622,-0.09130449593067169,0.4785098135471344,0.00014198660210240632,-0.013334894552826881,0.12757396697998047,0,0,0
54951328,d4:22:cd:00:30:92,0.8652944564819336,-0.11816200613975525,-0.09130395203828812,0.4785047173500061,0.005290328059345484,0.011727501638233662,0.09978103637695312,0,0,0
54967995,d4:22:cd:00:30:92,0.8652806282043457,-0.11816877871751785,-0.09129892289638519,0.4785288870334625,0.009932580403983593,0.003141027642413974,0.10995769500732422,0,0,0
54984662,d4:22:cd:00:30:92,0.8652763962745667,-0.11816851049661636,-0.09129287302494049,0.4785378873348236,-0.026954656466841698,0.016793422400951385,0.07372093200683594,0,0,0
55001329,d4:22:cd:00:30:92,0.8652815222740173,-0.118163101375103,-0.09130386263132095,0.47852787375450134,-0.009149894118309021,0.000034420994779793546,0.09508419036865234,0,0,0
55017996,d4:22:cd:00:30:92,0.8652878999710083,-0.11817633360624313,-0.09128862619400024,0.4785159230232239,-0.00008079993131104857,0.013749846257269382,0.09875011444091797,0,0,0
55034663,d4:22:cd:00:30:92,0.8653028607368469,-0.11817002296447754,-0.09129304438829422,0.4784897565841675,-0.006312843877822161,0.01684739999473095,0.0999441146850586,0,0,0
55051330,d4:22:cd:00:30:92,0.8653071522712708,-0.11816275864839554,-0.09129171818494797,0.47848406434059143,0.007120675873011351,-0.012565786950290203,0.1151123046875,0,0,0
55067997,d4:22:cd:00:30:92,0.8653005361557007,-0.11815644800662994,-0.09129063040018082,0.4784979224205017,0.008942920714616776,-0.0007340165320783854,0.09054183959960938,0,0,0
55084664,d4:22:cd:00:30:92,0.8653067350387573,-0.11814935505390167,-0.0912858173251152,0.47848939895629883,-0.004480261355638504,-0.019649358466267586,0.10688018798828125,0,0,0
55101331,d4:22:cd:00:30:92,0.8653072714805603,-0.11814453452825546,-0.0912780687212944,0.4784911274909973,0.01037508063018322,-0.003750994335860014,0.08177947998046875,0,0,0
55117998,d4:22:cd:00:30:92,0.8652973175048828,-0.11814452707767487,-0.09128770232200623,0.4785071611404419,-0.007386097218841314,-0.01003908459097147,0.10648155212402344,0,0,0
55134665,d4:22:cd:00:30:92,0.8652980327606201,-0.11813664436340332,-0.09128084778785706,0.47850915789604187,-0.014527280814945698,0.009157214313745499,0.10611724853515625,0,0,0
55151332,d4:22:cd:00:30:92,0.8652966618537903,-0.11812614649534225,-0.09129025042057037,0.47851231694221497,-0.006637999322265387,-0.010239798575639725,0.10763168334960938,0,0,0
55167999,d4:22:cd:00:30:92,0.8652914762496948,-0.11813369393348694,-0.09127943217754364,0.47852182388305664,-0.022339673712849617,-0.002579898340627551,0.11236190795898438,0,0,0
55184666,d4:22:cd:00:30:92,0.8652933835983276,-0.11813696473836899,-0.0912853479385376,0.4785163700580597,-0.0032237274572253227,0.0010871670674532652,0.08742046356201172,0,0,0
55201333,d4:22:cd:00:30:92,0.8652955293655396,-0.11813841760158539,-0.09128475189208984,0.4785124659538269,-0.0055109914392232895,-0.00527870561927557,0.10130596160888672,0,0,0
55218000,d4:22:cd:00:30:92,0.8652975559234619,-0.11814286559820175,-0.09128019213676453,0.47850844264030457,0.006217180285602808,0.010715993121266365,0.06577587127685547,0,0,0
55234667,d4:22:cd:00:30:92,0.8652980923652649,-0.1181405633687973,-0.09128117561340332,0.47850778698921204,-0.0016745590837672353,-0.004887222312390804,0.09934234619140625,0,0,0
55251334,d4:22:cd:00:30:92,0.8653048872947693,-0.11814357340335846,-0.09128785133361816,0.4784935712814331,0.016606174409389496,-0.0077724396251142025,0.0846090316772461,0,0,0
55268001,d4:22:cd:00:30:92,0.8652957081794739,-0.11815282702445984,-0.09129934012889862,0.47850582003593445,-0.0027794954366981983,0.0060028876177966595,0.11144256591796875,0,0,0
55284668,d4:22:cd:00:30:92,0.8652975559234619,-0.11814945936203003,-0.0912909060716629,0.4785049557685852,-0.01372688077390194,-0.006752773188054562,0.09737110137939453,0,0,0
55301335,d4:22:cd:00:30:92,0.8652856945991516,-0.11815387010574341,-0.09129031747579575,0.47852516174316406,0.0017701666802167892,0.007501094602048397,0.09817314147949219,0,0,0
55318002,d4:22:cd:00:30:92,0.8652811646461487,-0.11815143376588821,-0.09129614382982254,0.4785331189632416,-0.012486383318901062,0.00779691431671381,0.08173942565917969,0,0,0
55334669,d4:22:cd:00:30:92,0.865289568901062,-0.11814799904823303,-0.09129648655653,0.47851869463920593,-0.0038550395984202623,0.0024351736065000296,0.08723926544189453,0,0,0
55351336,d4:22:cd:00:30:92,0.86529141664505,-0.11814416199922562,-0.0912945494055748,0.478516548871994,0.0030611776746809483,-0.0109436409547925,0.10747528076171875,0,0,0
55368003,d4:22:cd:00:30:92,0.8652845025062561,-0.11813835054636002,-0.09128644317388535,0.4785318374633789,0.0012485433835536242,0.0058368174359202385,0.09096622467041016,0,0,0
55384670,d4:22:cd:00:30:92,0.8652891516685486,-0.11814796179533005,-0.09126681089401245,0.4785251021385193,0.004286196082830429,0.00035259168362244964,0.09414196014404297,0,0,0
55401337,d4:22:cd:00:30:92,0.8652926683425903,-0.11814906448125839,-0.09126553684473038,0.4785185754299164,0.01604107767343521,-0.009240472689270973,0.06586170196533203,0,0,0
55418004,d4:22:cd:00:30:92,0.8652843236923218,-0.11815300583839417,-0.09126890450716019,0.4785320460796356,-0.004006469622254372,-0.01104098092764616,0.08005905151367188,0,0,0
55434671,d4:22:cd:00:30:92,0.8652838468551636,-0.11816052347421646,-0.09127172827720642,0.47853052616119385,0.00339689408428967,-0.005225732922554016,0.10535526275634766,0,0,0
55451338,d4:22:cd:00:30:92,0.8652804493904114,-0.11816451698541641,-0.09127036482095718,0.4785359501838684,0.004334083758294582,0.010632064193487167,0.10395622253417969,0,0,0
55468005,d4:22:cd:00:30:92,0.8652795553207397,-0.11817147582769394,-0.09125649183988571,0.47853830456733704,-0.01468608621507883,0.0007710079662501812,0.10825729370117188,0,0,0
55484672,d4:22:cd:00:30:92,0.8652869462966919,-0.11818386614322662,-0.09124304354190826,0.478524386882782,-0.00579652888700366,0.005172313190996647,0.07822895050048828,0,0,0
55501339,d4:22:cd:00:30:92,0.8652911186218262,-0.11817961931228638,-0.0912395715713501,0.4785187542438507,-0.0067499238066375256,-0.004652757663279772,0.08155250549316406,0,0,0
55518006,d4:22:cd:00:30:92,0.8652874827384949,-0.11818430572748184,-0.09125334024429321,0.478521466255188,0.005568378139287233,0.004597102757543325,0.08054924011230469,0,0,0
55534673,d4:22:cd:00:30:92,0.8652876615524292,-0.11818073689937592,-0.09126859158277512,0.47851917147636414,-0.013990066945552826,0.005008589942008257,0.11337661743164062,0,0,0
55551340,d4:22:cd:00:30:92,0.8652888536453247,-0.11818157136440277,-0.09126164019107819,0.47851821780204773,0.007373021915555,-0.005293569061905146,0.1043701171875,0,0,0
55568007,d4:22:cd:00:30:92,0.865293562412262,-0.11818091571331024,-0.09125625342130661,0.47851091623306274,0.007991314865648746,-0.012366077862679958,0.11046314239501953,0,0,0
55584674,d4:22:cd:00:30:92,0.865292489528656,-0.1181890219449997,-0.09124927967786789,0.4785122573375702,0.0017504417337477207,-0.006182256620377302,0.10123062133789062,0,0,0
55601341,d4:22:cd:00:30:92,0.865297794342041,-0.11817666888237,-0.0912419930100441,0.4785071015357971,0.006326478440314531,-0.0070245652459561825,0.0663137435913086,0,0,0
55618008,d4:22:cd:00:30:92,0.8653092980384827,-0.11817909777164459,-0.09124511480331421,0.478485107421875,-0.004886607639491558,-0.007154202554374933,0.09177303314208984,0,0,0
55634675,d4:22:cd:00:30:92,0.8653191328048706,-0.11817023903131485,-0.09126006811857224,0.4784663915634155,0.0018885168246924877,-0.004138230811804533,0.10398197174072266,0,0,0
55651342,d4:22:cd:00:30:92,0.8653194308280945,-0.11815817654132843,-0.09126798063516617,0.4784673750400543,0.001583421602845192,-0.0014844612451270223,0.11946487426757812,0,0,0
55668009,d4:22:cd:00:30:92,0.8653260469436646,-0.11815279722213745,-0.09127043932676315,0.4784562587738037,-0.00573634821921587,0.013605792075395584,0.11542224884033203,0,0,0
55684676,d4:22:cd:00:30:92,0.8653255701065063,-0.11815765500068665,-0.09126012772321701,0.4784580171108246,0.009746002964675426,0.0009034393588081002,0.1007394790649414,0,0,0
55701343,d4:22:cd:00:30:92,0.8653249740600586,-0.11816130578517914,-0.0912553146481514,0.47845911979675293,0.009516678750514984,-0.007388555910438299,0.0804300308227539,0,0,0
55718010,d4:22:cd:00:30:92,0.8653147220611572,-0.11816182732582092,-0.09126248955726624,0.47847631573677063,0.0011974707012996078,0.004086487460881472,0.07947826385498047,0,0,0
55734677,d4:22:cd:00:30:92,0.8653132915496826,-0.11815781891345978,-0.09126532822847366,0.4784790575504303,-0.009652351029217243,-0.0017714519053697586,0.09305477142333984,0,0,0
55751344,d4:22:cd:00:30:92,0.8653144240379333,-0.11815282702445984,-0.09126985818147659,0.4784773886203766,-0.00035041244700551033,0.014232187531888485,0.08219051361083984,0,0,0
55768011,d4:22:cd:00:30:92,0.8653120398521423,-0.11815102398395538,-0.09127777814865112,0.47848060727119446,-0.009137768298387527,-0.003862303914502263,0.10324382781982422,0,0,0
55784678,d4:22:cd:00:30:92,0.8653106689453125,-0.11815036088228226,-0.09126348793506622,0.4784860908985138,-0.004716961644589901,0.0037840744480490685,0.10617256164550781,0,0,0
55801345,d4:22:cd:00:30:92,0.8653078675270081,-0.11813992261886597,-0.09124565869569778,0.47849708795547485,-0.005053739529103041,0.0072829462587833405,0.09705924987792969,0,0,0
55818012,d4:22:cd:00:30:92,0.8653103709220886,-0.11814618855714798,-0.09123624861240387,0.478492796421051,0.005379342008382082,-0.0049757338128983974,0.08475399017333984,0,0,0
55834679,d4:22:cd:00:30:92,0.8653084635734558,-0.11813992261886597,-0.09125013649463654,0.4784949719905853,0.007140736095607281,0.004282508045434952,0.08691692352294922,0,0,0
55851346,d4:22:cd:00:30:92,0.8653646111488342,-0.11812397837638855,-0.09123557060956955,0.47840023040771484,0.0035713459365069866,-0.002283073030412197,0.08928108215332031,0,0,0
55868013,d4:22:cd:00:30:92,0.8653687834739685,-0.11812396347522736,-0.09124597162008286,0.4783909320831299,-0.002081520389765501,0.0012628481490537524,0.10425472259521484,0,0,0
55884680,d4:22:cd:00:30:92,0.8653642535209656,-0.11813340336084366,-0.09124746918678284,0.47839638590812683,-0.0058033461682498455,-0.010696101002395153,0.10971546173095703,0,0,0
55901347,d4:22:cd:00:30:92,0.8653663396835327,-0.11813605576753616,-0.09123095124959946,0.47839513421058655,-0.0015373220667243004,0.010000640526413918,0.09175300598144531,0,0,0
55918014,d4:22:cd:00:30:92,0.8653696775436401,-0.11813254654407501,-0.09122458845376968,0.4783910810947418,-0.003141027642413974,0.0006135430885478854,0.08986473083496094,0,0,0
55934681,d4:22:cd:00:30:92,0.8653682470321655,-0.11813624948263168,-0.0912197008728981,0.4783936142921448,0.0007734665996395051,0.0017987205646932125,0.07480144500732422,0,0,0
55951348,d4:22:cd:00:30:92,0.8653650283813477,-0.11813119053840637,-0.09123140573501587,0.47839874029159546,0.01186881773173809,-0.008418280631303787,0.07161998748779297,0,0,0
55968015,d4:22:cd:00:30:92,0.8653635382652283,-0.11813143640756607,-0.09122806787490845,0.47840186953544617,-0.0026864581741392612,-0.0014197543496266007,0.1025400161743164,0,0,0
55984682,d4:22:cd:00:30:92,0.8653618097305298,-0.11812302470207214,-0.09123708307743073,0.4784053564071655,0.010567245073616505,-0.006887663621455431,0.09198951721191406,0,0,0
56001349,d4:22:cd:00:30:92,0.8653604984283447,-0.11813357472419739,-0.09123130142688751,0.4784061908721924,0.0042790998704731464,0.0008383970707654953,0.10316276550292969,0,0,0
56018016,d4:22:cd:00:30:92,0.8653573989868164,-0.11813555657863617,-0.09122701734304428,0.47841203212738037,0.002228368306532502,0.009304956533014774,0.10208988189697266,0,0,0
56034683,d4:22:cd:00:30:92,0.8653626441955566,-0.11813024431467056,-0.09122128039598465,0.47840529680252075,-0.004553014878183603,-0.010791094042360783,0.08780860900878906,0,0,0
56051350,d4:22:cd:00:30:92,0.865357518196106,-0.11813262850046158,-0.09122151881456375,0.4784137010574341,-0.01021375972777605,-0.00019635613716673106,0.07492351531982422,0,0,0
56068017,d4:22:cd:00:30:92,0.8653556108474731,-0.11812334507703781,-0.0912361666560173,0.47841671109199524,0.003118396969512105,-0.007283393293619156,0.110687255859375,0,0,0
56084684,d4:22:cd:00:30:92,0.8653581738471985,-0.11812535673379898,-0.09123194217681885,0.4784125089645386,-0.005994673352688551,-0.003496413119137287,0.11132526397705078,0,0,0
56101351,d4:22:cd:00:30:92,0.8653631806373596,-0.11812145262956619,-0.09122949838638306,0.47840479016304016,0.0053993468172848225,-0.0022457463201135397,0.09367942810058594,0,0,0
56118018,d4:22:cd:00:30:92,0.8653612732887268,-0.11811702698469162,-0.09122284501791,0.4784105718135834,0.007705441676080227,-0.012481074780225754,0.10464668273925781,0,0,0
56134685,d4:22:cd:00:30:92,0.8653507232666016,-0.11813206225633621,-0.0912070944905281,0.4784289300441742,0.011225826106965542,0.009665370918810368,0.08199691772460938,0,0,0
56151352,d4:22:cd:00:30:92,0.8653482794761658,-0.11814344674348831,-0.09120573848485947,0.47843092679977417,0.008404813706874847,-0.004332239739596844,0.08455276489257812,0,0,0
56168019,d4:22:cd:00:30:92,0.865342915058136,-0.11814240366220474,-0.09121154993772507,0.4784397482872009,-0.005192652810364962,0.002534078201279044,0.08108997344970703,0,0,0
56184686,d4:22:cd:00:30:92,0.8653388619422913,-0.11813601106405258,-0.09121997654438019,0.47844696044921875,-0.021323470398783684,0.0005925328587181866,0.09723663330078125,0,0,0
56201353,d4:22:cd:00:30:92,0.8653423190116882,-0.11813712865114212,-0.09121633321046829,0.4784410893917084,-0.00724852504208684,0.013410554267466068,0.09953022003173828,0,0,0
56218020,d4:22:cd:00:30:92,0.8653433322906494,-0.11813806742429733,-0.09121107310056686,0.47843992710113525,-0.0014957486419007182,0.009997958317399025,0.09036064147949219,0,0,0
56234687,d4:22:cd:00:30:92,0.8653485774993896,-0.1181570291519165,-0.0912100151181221,0.47842612862586975,0.0032864785753190517,-0.006037420127540827,0.09307193756103516,0,0,0
56251354,d4:22:cd:00:30:92,0.8653514385223389,-0.11816143989562988,-0.09120688587427139,0.4784204661846161,0.0057677519507706165,0.009456721134483814,0.07040786743164062,0,0,0
56268021,d4:22:cd:00:30:92,0.8653585910797119,-0.11815527826547623,-0.09121699631214142,0.47840702533721924,0.020121585577726364,-0.0017819569911807775,0.10815048217773438,0,0,0
56284688,d4:22:cd:00:30:92,0.8653581738471985,-0.11814454942941666,-0.09122172743082047,0.47840967774391174,0.004101015627384186,0.0029881447553634644,0.09533309936523438,0,0,0
56301355,d4:22:cd:00:30:92,0.8653565049171448,-0.11815401911735535,-0.09122971445322037,0.4784088134765625,0.0013411894906312227,-0.0008263274212367833,0.09851741790771484,0,0,0
56318022,d4:22:cd:00:30:92,0.8653495907783508,-0.11815965175628662,-0.09123561531305313,0.47841876745224,-0.0009869214845821261,0.0022055141162127256,0.11628055572509766,0,0,0
56334689,d4:22:cd:00:30:92,0.8653587102890015,-0.11815739423036575,-0.09122620522975922,0.4784047305583954,0.011697550304234028,0.013932009227573872,0.09955120086669922,0,0,0
56351356,d4:22:cd:00:30:92,0.8653545379638672,-0.11815912276506424,-0.09121876209974289,0.47841334342956543,0.0024414320942014456,-0.008632182143628597,0.08426284790039062,0,0,0
56368023,d4:22:cd:00:30:92,0.8653495907783508,-0.11816339939832687,-0.09121499210596085,0.47842201590538025,-0.010495553724467754,0.0036899754777550697,0.07717514038085938,0,0,0
56384690,d4:22:cd:00:30:92,0.865351676940918,-0.11816446483135223,-0.09121206402778625,0.4784185290336609,-0.016053371131420135,0.0033408482559025288,0.08284187316894531,0,0,0
56401357,d4:22:cd:00:30:92,0.8653571009635925,-0.11816032230854034,-0.09120109677314758,0.47841161489486694,-0.004924381617456675,0.008566692471504211,0.0891408920288086,0,0,0
56418024,d4:22:cd:00:30:92,0.8653583526611328,-0.11815426498651505,-0.09120302647352219,0.4784103333950043,-0.00016981396765913814,0.004503562580794096,0.10246467590332031,0,0,0
56434691,d4:22:cd:00:30:92,0.8653613924980164,-0.11815986037254333,-0.09119836241006851,0.4784046709537506,0.001864153891801834,0.0023364927619695663,0.09968852996826172,0,0,0
56451358,d4:22:cd:00:30:92,0.8653584718704224,-0.11817200481891632,-0.09119806438684464,0.47840675711631775,0.005530716385692358,-0.00332397292368114,0.08822154998779297,0,0,0
56468025,d4:22:cd:00:30:92,0.8653522729873657,-0.11817330121994019,-0.09119033068418503,0.47841912508010864,-0.0012289859587326646,0.004664156585931778,0.08887577056884766,0,0,0
56484692,d4:22:cd:00:30:92,0.8653533458709717,-0.11817542463541031,-0.0911853164434433,0.4784175753593445,0.007804457563906908,0.006527695804834366,0.07799243927001953,0,0,0
56501359,d4:22:cd:00:30:92,0.8653513789176941,-0.11818423867225647,-0.09119544178247452,0.4784170389175415,0.005049549043178558,0.00003419748099986464,0.10806846618652344,0,0,0
56518026,d4:22:cd:00:30:92,0.8653450608253479,-0.1181846410036087,-0.09120217710733414,0.4784272313117981,0.01302639115601778,0.0028148104902356863,0.09824275970458984,0,0,0
56534693,d4:22:cd:00:30:92,0.8653420209884644,-0.11817622929811478,-0.09120935201644897,0.4784333407878876,-0.0010723592713475227,0.011185146868228912,0.09255218505859375,0,0,0
56551360,d4:22:cd:00:30:92,0.8653403520584106,-0.1181800439953804,-0.09121109545230865,0.4784352779388428,-0.00684100529178977,0.0016815997660160065,0.09896278381347656,0,0,0
56568027,d4:22:cd:00:30:92,0.8653370141983032,-0.11818146705627441,-0.09121586382389069,0.4784397780895233,-0.006453042384237051,0.0033340309746563435,0.08916187286376953,0,0,0
56584694,d4:22:cd:00:30:92,0.8653352856636047,-0.11818480491638184,-0.09121423214673996,0.47844240069389343,0.00862430315464735,0.008450019173324108,0.1058950424194336,0,0,0
56601361,d4:22:cd:00:30:92,0.8653425574302673,-0.11818728595972061,-0.09121761471033096,0.47842827439308167,0.02056945115327835,-0.012518178671598434,0.0868387222290039,0,0,0
56618028,d4:22:cd:00:30:92,0.8653393387794495,-0.11818735301494598,-0.09121131896972656,0.4784351587295532,-0.0029053331818431616,0.0001769105001585558,0.10040283203125,0,0,0
56634695,d4:22:cd:00:30:92,0.8653365969657898,-0.11818105727434158,-0.09120076894760132,0.4784437417984009,-0.008176830597221851,0.01994260773062706,0.08652019500732422,0,0,0
56651362,d4:22:cd:00:30:92,0.865329384803772,-0.11818427592515945,-0.09119587391614914,0.47845685482025146,0.007763331290334463,-0.009105359204113483,0.089935302734375,0,0,0
56668029,d4:22:cd:00:30:92,0.8653320670127869,-0.11818615347146988,-0.09118417650461197,0.4784538149833679,0.007313511334359646,-0.0011500859400257468,0.0881357192993164,0,0,0
56684696,d4:22:cd:00:30:92,0.8653345108032227,-0.1181776151061058,-0.09118542820215225,0.478451132774353,-0.0029969734605401754,-0.0008066582377068698,0.09350776672363281,0,0,0
56701363,d4:22:cd:00:30:92,0.8653315305709839,-0.11817219108343124,-0.09118013083934784,0.4784589111804962,0.0002597779384814203,-0.0033798511140048504,0.10246467590332031,0,0,0
56718030,d4:22:cd:00:30:92,0.8653278946876526,-0.11816270649433136,-0.09118352085351944,0.47846710681915283,0.012776782736182213,0.004039326217025518,0.09392070770263672,0,0,0
56734697,d4:22:cd:00:30:92,0.8653261065483093,-0.11815845221281052,-0.09118910133838654,0.4784703552722931,-0.002811234211549163,-0.002502339193597436,0.09723567962646484,0,0,0
56751364,d4:22:cd:00:30:92,0.8653209805488586,-0.11815916001796722,-0.0911913812160492,0.4784790277481079,0.009233320131897926,0.0013404071796685457,0.08638191223144531,0,0,0
56768031,d4:22:cd:00:30:92,0.86532062292099,-0.11817003041505814,-0.09119115024805069,0.4784770905971527,0.007231817580759525,0.004069053567945957,0.08680248260498047,0,0,0
56784698,d4:22:cd:00:30:92,0.8653249740600586,-0.11817538738250732,-0.09118888527154922,0.47846829891204834,0.00007347988139372319,0.008805963210761547,0.09777545928955078,0,0,0
56801365,d4:22:cd:00:30:92,0.8653244972229004,-0.11817789822816849,-0.09118510782718658,0.47846925258636475,-0.008546632714569569,-0.0019193057669326663,0.09263134002685547,0,0,0
56818032,d4:22:cd:00:30:92,0.8653214573860168,-0.11817845702171326,-0.09117996692657471,0.47847557067871094,-0.0026646656915545464,-0.0018371647456660867,0.10524654388427734,0,0,0
56834699,d4:22:cd:00:30:92,0.8653180599212646,-0.11816875636577606,-0.09118417650461197,0.4784832298755646,-0.014142726548016071,-0.000012069699550920632,0.09449577331542969,0,0,0
56851366,d4:22:cd:00:30:92,0.8653150796890259,-0.1181788519024849,-0.09117881953716278,0.47848713397979736,0.006173148285597563,-0.007697450928390026,0.10041522979736328,0,0,0
56868033,d4:22:cd:00:30:92,0.865318238735199,-0.11817140132188797,-0.09117575734853745,0.47848379611968994,0.011927992105484009,0.005603469908237457,0.07930278778076172,0,0,0
56884700,d4:22:cd:00:30:92,0.8653159141540527,-0.1181701123714447,-0.09117377549409866,0.4784886837005615,-0.00292578455992043,-0.0037085269577801228,0.09213733673095703,0,0,0
56901367,d4:22:cd:00:30:92,0.8653176426887512,-0.1181759312748909,-0.09117291867733002,0.4784843921661377,-0.009686268866062164,0.00658502709120512,0.07888031005859375,0,0,0
56918034,d4:22:cd:00:30:92,0.8653150796890259,-0.11818905174732208,-0.09118179231882095,0.47848406434059143,-0.007104806136339903,0.004946006461977959,0.10525321960449219,0,0,0
56934701,d4:22:cd:00:30:92,0.8653160333633423,-0.11818899214267731,-0.09118387848138809,0.4784819483757019,-0.006699745077639818,0.006234670523554087,0.07665157318115234,0,0,0
56951368,d4:22:cd:00:30:92,0.8653103709220886,-0.1181948259472847,-0.09118824452161789,0.4784899055957794,0.006140236277133226,0.006879616994410753,0.09272003173828125,0,0,0
56968035,d4:22:cd:00:30:92,0.8653122782707214,-0.11819510906934738,-0.09117288887500763,0.4784892797470093,-0.008841054514050484,0.002242840826511383,0.09686279296875,0,0,0
56984702,d4:22:cd:00:30:92,0.8653147220611572,-0.11819369345903397,-0.09116607159376144,0.4784865975379944,0.001986750867217779,-0.006901632994413376,0.0926656723022461,0,0,0
57001369,d4:22:cd:00:30:92,0.8653200268745422,-0.11819344013929367,-0.09117048978805542,0.4784763753414154,-0.0003916505665984005,-0.002226077252998948,0.09710693359375,0,0,0
57018036,d4:22:cd:00:30:92,0.8653314113616943,-0.11818823218345642,-0.09116248041391373,0.4784584641456604,0.006741038989275694,0.005778145045042038,0.09047698974609375,0,0,0
57034703,d4:22:cd:00:30:92,0.8653351664543152,-0.11818800121545792,-0.09117322415113449,0.47844964265823364,-0.0019884828943759203,0.005104924086481333,0.10522270202636719,0,0,0
57051370,d4:22:cd:00:30:92,0.8653336763381958,-0.11818785965442657,-0.09117759019136429,0.47845175862312317,-0.008320437744259834,-0.007901742123067379,0.09966468811035156,0,0,0
57068037,d4:22:cd:00:30:92,0.8653423190116882,-0.11819411814212799,-0.0911782830953598,0.4784342646598816,0.0023558824323117733,0.009172300808131695,0.1060333251953125,0,0,0
57084704,d4:22:cd:00:30:92,0.8653442859649658,-0.11819212883710861,-0.09117159992456436,0.47843247652053833,0.0136670907959342,0.0008750532288104296,0.1027517318725586,0,0,0
57101371,d4:22:cd:00:30:92,0.8653436899185181,-0.11818451434373856,-0.0911673754453659,0.4784362018108368,0.006704830098897219,-0.003402537666261196,0.0823831558227539,0,0,0
57118038,d4:22:cd:00:30:92,0.8653390407562256,-0.11819455027580261,-0.09117183834314346,0.4784412384033203,-0.015578070655465126,-0.0023180528078228235,0.09217262268066406,0,0,0
57134705,d4:22:cd:00:30:92,0.8653402924537659,-0.11820363253355026,-0.0911710113286972,0.47843700647354126,0.010664640925824642,0.0007417277665808797,0.08065986633300781,0,0,0
57151372,d4:22:cd:00:30:92,0.865341305732727,-0.1181974932551384,-0.09116892516613007,0.47843703627586365,0.00005062568379798904,-0.00565633038058877,0.10075187683105469,0,0,0
57168039,d4:22:cd:00:30:92,0.8653453588485718,-0.11820314079523087,-0.09116356074810028,0.47842925786972046,0.006145768333226442,0.010587249882519245,0.10422420501708984,0,0,0
57184706,d4:22:cd:00:30:92,0.8653427958488464,-0.11820905655622482,-0.09116021543741226,0.4784330725669861,0.002758094109594822,0.006403087172657251,0.10646438598632812,0,0,0
57201373,d4:22:cd:00:30:92,0.8653491735458374,-0.1182134672999382,-0.09114934504032135,0.4784223735332489,0.0020034583285450935,-0.003535080933943391,0.08426094055175781,0,0,0
57218040,d4:22:cd:00:30:92,0.8653497099876404,-0.11822513490915298,-0.09114577621221542,0.47841954231262207,0.009919448755681515,0.0091130705550313,0.09428024291992188,0,0,0
57234707,d4:22:cd:00:30:92,0.8653488159179688,-0.11821116507053375,-0.09115126729011536,0.478423535823822,-0.0022209365852177143,0.009453591890633106,0.09676837921142578,0,0,0
57251374,d4:22:cd:00:30:92,0.8653491139411926,-0.11821037530899048,-0.0911535993218422,0.47842279076576233,-0.004554747138172388,0.012469005770981312,0.09572696685791016,0,0,0
57268041,d4:22:cd:00:30:92,0.8653441071510315,-0.11820618808269501,-0.09114953130483627,0.478433758020401,0.0011756222229450941,-0.005329554900527,0.10159778594970703,0,0,0
57284708,d4:22:cd:00:30:92,0.8653456568717957,-0.11820457875728607,-0.09114368259906769,0.47843214869499207,-0.00382235087454319,0.00877288356423378,0.10314369201660156,0,0,0
57301375,d4:22:cd:00:30:92,0.8653497695922852,-0.11820989847183228,-0.0911400243639946,0.4784241318702698,-0.002357670571655035,-0.0006500874296762049,0.08679389953613281,0,0,0
57318042,d4:22:cd:00:30:92,0.8653556704521179,-0.11821813136339188,-0.09114515781402588,0.47841036319732666,0.001662824652157724,0.007521322928369045,0.09340953826904297,0,0,0
57334709,d4:22:cd:00:30:92,0.8653590679168701,-0.11821380257606506,-0.09114907681941986,0.4784044623374939,-0.004234005697071552,0.005632191430777311,0.09060287475585938,0,0,0
57351376,d4:22:cd:00:30:92,0.8653600811958313,-0.11820197850465775,-0.09114698320627213,0.4784061014652252,0.004901471547782421,0.0008304623770527542,0.10254287719726562,0,0,0
57368043,d4:22:cd:00:30:92,0.8653571605682373,-0.11820986121892929,-0.09114771336317062,0.47840937972068787,-0.0014136077370494604,0.0140226436778903,0.08465290069580078,0,0,0
57384710,d4:22:cd:00:30:92,0.8653581142425537,-0.11822985112667084,-0.09114707261323929,0.4784029722213745,0.00497131934389472,0.008686048910021782,0.098876953125,0,0,0
57401377,d4:22:cd:00:30:92,0.8653568625450134,-0.11822608858346939,-0.09114730358123779,0.47840604186058044,0.00392533466219902,-0.0065366365015506744,0.07499122619628906,0,0,0
57418044,d4:22:cd:00:30:92,0.86536705493927,-0.11821947246789932,-0.09114449471235275,0.4783896803855896,0.004256636835634708,0.0011185705661773682,0.09600830078125,0,0,0
57434711,d4:22:cd:00:30:92,0.8653599619865417,-0.11821574717760086,-0.09115776419639587,0.4784010648727417,0.005596093833446503,0.0016062759095802903,0.10650825500488281,0,0,0
57451378,d4:22:cd:00:30:92,0.8653573393821716,-0.11821027100086212,-0.09115486592054367,0.478407621383667,0.005473832134157419,-0.0021044863387942314,0.09462642669677734,0,0,0
57468045,d4:22:cd:00:30:92,0.8653572201728821,-0.11822333931922913,-0.09114912897348404,0.47840556502342224,-0.0005303403595462441,-0.0001928916753968224,0.09949874877929688,0,0,0
57484712,d4:22:cd:00:30:92,0.8653624057769775,-0.1182343140244484,-0.09114658832550049,0.4783939719200134,-0.005113864783197641,0.010006786324083805,0.10360145568847656,0,0,0
57501379,d4:22:cd:00:30:92,0.8653536438941956,-0.11824242770671844,-0.09113817662000656,0.47840946912765503,-0.004686787258833647,-0.009197446517646313,0.09888458251953125,0,0,0
57518046,d4:22:cd:00:30:92,0.8653493523597717,-0.11824622750282288,-0.0911325067281723,0.47841739654541016,-0.011283716186881065,0.008419621735811234,0.09106159210205078,0,0,0
57534713,d4:22:cd:00:30:92,0.8653466701507568,-0.11825576424598694,-0.09113951027393341,0.47841858863830566,0.007660403847694397,-0.011219009757041931,0.09286975860595703,0,0,0
57551380,d4:22:cd:00:30:92,0.8653484582901001,-0.11827021092176437,-0.09114416688680649,0.47841086983680725,-0.005776301026344299,0.00828003790229559,0.09642219543457031,0,0,0
57568047,d4:22:cd:00:30:92,0.8653509616851807,-0.11827605217695236,-0.09113985300064087,0.4784056544303894,-0.010099489241838455,0.0070206536911427975,0.10167980194091797,0,0,0
57584714,d4:22:cd:00:30:92,0.8653497099876404,-0.11827649921178818,-0.09114515036344528,0.478407084941864,-0.002586547750979662,0.012525554746389389,0.10035419464111328,0,0,0
57601381,d4:22:cd:00:30:92,0.8653512001037598,-0.11828044056892395,-0.09113802760839462,0.47840458154678345,0.0002673773851711303,0.00732071977108717,0.08158588409423828,0,0,0
57618048,d4:22:cd:00:30:92,0.8653527498245239,-0.11828383803367615,-0.09113608300685883,0.47840139269828796,-0.0025929738767445087,0.0026491873431950808,0.093536376953125,0,0,0
57634715,d4:22:cd:00:30:92,0.8653587102890015,-0.11827685683965683,-0.09113846719264984,0.47839176654815674,-0.0009070714586414397,-0.0031468388624489307,0.0953969955444336,0,0,0
57651382,d4:22:cd:00:30:92,0.8653634786605835,-0.1182645931839943,-0.09114082157611847,0.47838565707206726,0.004169969353824854,0.00040142927900888026,0.09018230438232422,0,0,0
57668049,d4:22:cd:00:30:92,0.8653585910797119,-0.1182708740234375,-0.09114117920398712,0.4783928394317627,-0.006722878664731979,0.0020708474330604076,0.10765647888183594,0,0,0
57684716,d4:22:cd:00:30:92,0.8653598427772522,-0.11826225370168686,-0.09114927798509598,0.4783913791179657,0.003362417221069336,-0.010815680027008057,0.08921527862548828,0,0,0
57701383,d4:22:cd:00:30:92,0.8653597831726074,-0.1182718425989151,-0.09115458279848099,0.47838813066482544,0.0035642492584884167,0.001931598992086947,0.08687019348144531,0,0,0
57718050,d4:22:cd:00:30:92,0.8653580546379089,-0.1182825118303299,-0.09115486592054367,0.47838854789733887,-0.007775121834129095,0.0035603379365056753,0.0796976089477539,0,0,0
57734717,d4:22:cd:00:30:92,0.8653531074523926,-0.11828334629535675,-0.0911564752459526,0.4783968925476074,-0.005993220489472151,0.00918112974613905,0.08836555480957031,0,0,0
57751384,d4:22:cd:00:30:92,0.8653540015220642,-0.11828650534152985,-0.09115925431251526,0.47839412093162537,0.003315703012049198,0.0029076801147311926,0.09202289581298828,0,0,0
57768051,d4:22:cd:00:30:92,0.8653540015220642,-0.1182858869433403,-0.09115906804800034,0.47839435935020447,0.003383427392691374,-0.002247087424620986,0.10945415496826172,0,0,0
57784718,d4:22:cd:00:30:92,0.865358829498291,-0.11828380078077316,-0.09114987403154373,0.4783878028392792,-0.005107271019369364,0.004226741846650839,0.10855484008789062,0,0,0
57801385,d4:22:cd:00:30:92,0.8653528094291687,-0.11829791963100433,-0.0911465585231781,0.47839590907096863,0.0033618584275245667,0.004281390458345413,0.10485649108886719,0,0,0
57818052,d4:22:cd:00:30:92,0.8653559684753418,-0.1183052808046341,-0.09112770110368729,0.4783919155597687,-0.006994055584073067,0.00048524662270210683,0.08331108093261719,0,0,0
57834719,d4:22:cd:00:30:92,0.865362286567688,-0.11830411851406097,-0.09113709628582001,0.47837892174720764,-0.0018855553353205323,0.0032230569049715996,0.08672428131103516,0,0,0
57851386,d4:22:cd:00:30:92,0.8654059171676636,-0.11804715543985367,-0.09131290763616562,0.47833016514778137,0.001182886422611773,-0.004265856463462114,0.09896087646484375,0,0,0
