sep=,
Measurement Mode:,Extended (Quaternion)
StartTime:,Tue, 31 May 2022 11:57:05 GMT
© Xsens Technologies B. V. 2005-2022

Timestamp,Address,Quaternion_w,Quaternion_x,Quaternion_y,Quaternion_z,FreeAcc_x,FreeAcc_y,FreeAcc_z,Status,ClipCountAcc,ClipCountGyr
2336788195,d4:22:cd:00:30:92,0.24392114579677582,0.6944639682769775,0.18063923716545105,-0.6523858308792114,0.00705194566398859,0.0008681243052706122,-0.04545116424560547,0,0,0
2336804862,d4:22:cd:00:30:92,0.24389374256134033,0.6944754123687744,0.18060259521007538,-0.6523940563201904,-0.005886884406208992,0.013030135072767735,-0.042598724365234375,0,0,0
2336821529,d4:22:cd:00:30:92,0.2439820021390915,0.6944531202316284,0.18067359924316406,-0.6523650884628296,0.003729425370693207,0.004238029010593891,-0.033618927001953125,0,0,0
2336838196,d4:22:cd:00:30:92,0.2439708709716797,0.694463849067688,0.18066906929016113,-0.6523591876029968,-0.013486660085618496,0.008721251972019672,-0.054431915283203125,0,0,0
2336854863,d4:22:cd:00:30:92,0.24404530227184296,0.6944334506988525,0.1807197481393814,-0.652349591255188,0.021013682708144188,-0.009868990629911423,-0.03339958190917969,0,0,0
2336871530,d4:22:cd:00:30:92,0.24402771890163422,0.6944429874420166,0.18069709837436676,-0.6523522138595581,-0.013037287630140781,0.013106129132211208,-0.04457378387451172,0,0,0
2336888197,d4:22:cd:00:30:92,0.24404998123645782,0.6944305300712585,0.18072821199893951,-0.6523486375808716,0.007568260654807091,-0.004191538318991661,-0.05182933807373047,0,0,0
2336904864,d4:22:cd:00:30:92,0.24402961134910583,0.6944360136985779,0.1807205229997635,-0.6523523926734924,-0.0008822056115604937,0.01102522388100624,-0.030098915100097656,0,0,0
2336921531,d4:22:cd:00:30:92,0.24403245747089386,0.6944434642791748,0.18072344362735748,-0.6523425579071045,0.029081828892230988,-0.010259021073579788,-0.05438995361328125,0,0,0
2336938198,d4:22:cd:00:30:92,0.24403618276119232,0.6944447159767151,0.18072374165058136,-0.6523398756980896,-0.013800807297229767,0.0027085300534963608,-0.033100128173828125,0,0,0
2336954865,d4:22:cd:00:30:92,0.24405382573604584,0.6944461464881897,0.18073737621307373,-0.6523280739784241,0.02692168764770031,-0.015776662155985832,-0.035007476806640625,0,0,0
2336971532,d4:22:cd:00:30:92,0.24405968189239502,0.6944395899772644,0.18075422942638397,-0.6523281931877136,-0.0017988323234021664,0.009049816057085991,-0.05171489715576172,0,0,0
2336988199,d4:22:cd:00:30:92,0.24404019117355347,0.6944504976272583,0.1807209551334381,-0.6523329019546509,-0.0007770427619107068,-0.02854059264063835,-0.04900169372558594,0,0,0
2337004866,d4:22:cd:00:30:92,0.24407821893692017,0.6944339871406555,0.18075591325759888,-0.6523267030715942,-0.01826726645231247,0.020495690405368805,-0.03646278381347656,0,0,0
2337021533,d4:22:cd:00:30:92,0.24404849112033844,0.6944389343261719,0.180741548538208,-0.6523364782333374,0.010366754606366158,-0.00394522724673152,-0.05993080139160156,0,0,0
2337038200,d4:22:cd:00:30:92,0.24406901001930237,0.6944249868392944,0.1807623952627182,-0.6523379683494568,-0.006191532593220472,-0.006607713643461466,-0.03735923767089844,0,0,0
2337054867,d4:22:cd:00:30:92,0.24403254687786102,0.694434404373169,0.18073014914989471,-0.6523504853248596,0.01169643271714449,-0.010328087024390697,-0.04938316345214844,0,0,0
2337071534,d4:22:cd:00:30:92,0.2440653294324875,0.6944262385368347,0.18075399100780487,-0.652340292930603,0.0004446790262591094,-0.007765287067741156,-0.046021461486816406,0,0,0
2337088201,d4:22:cd:00:30:92,0.24401968717575073,0.694445013999939,0.1807074099779129,-0.6523503065109253,0.006594414357095957,-0.012308858335018158,-0.03606891632080078,0,0,0
2337104868,d4:22:cd:00:30:92,0.24405641853809357,0.6944308280944824,0.1807536780834198,-0.6523388624191284,-0.009124021977186203,0.004581345245242119,-0.040617942810058594,0,0,0
2337121535,d4:22:cd:00:30:92,0.24403978884220123,0.6944411993026733,0.18074513971805573,-0.6523362994194031,0.0024451198987662792,-0.004122025799006224,-0.043288230895996094,0,0,0
2337138202,d4:22:cd:00:30:92,0.2440691441297531,0.6944261789321899,0.18077868223190308,-0.6523320078849792,0.0034722737036645412,0.005202040541917086,-0.03496074676513672,0,0,0
2337154869,d4:22:cd:00:30:92,0.2440498322248459,0.6944323182106018,0.18077385425567627,-0.6523340940475464,0.015282362699508667,0.005933375097811222,-0.044716835021972656,0,0,0
2337171536,d4:22:cd:00:30:92,0.24407176673412323,0.6944365501403809,0.1807813197374344,-0.6523193120956421,0.0024076816625893116,-0.004219030495733023,-0.05061054229736328,0,0,0
2337188203,d4:22:cd:00:30:92,0.2440643608570099,0.6944456100463867,0.18076588213443756,-0.6523166298866272,-0.005218692123889923,0.00628183176741004,-0.046726226806640625,0,0,0
2337204870,d4:22:cd:00:30:92,0.24405942857265472,0.694446861743927,0.18076257407665253,-0.6523181200027466,-0.01280896831303835,-0.0025554236490279436,-0.03552055358886719,0,0,0
2337221537,d4:22:cd:00:30:92,0.2440461963415146,0.6944518685340881,0.18075715005397797,-0.6523191928863525,0.0007923534139990807,0.007672752719372511,-0.04463958740234375,0,0,0
2337238204,d4:22:cd:00:30:92,0.24403351545333862,0.6944609880447388,0.1807468682527542,-0.6523170471191406,0.0022273065987974405,-0.008521207608282566,-0.04388713836669922,0,0,0
2337254871,d4:22:cd:00:30:92,0.24404102563858032,0.6944675445556641,0.18073806166648865,-0.6523097157478333,0.0025216732174158096,0.005404319614171982,-0.05023670196533203,0,0,0
2337271538,d4:22:cd:00:30:92,0.244038924574852,0.6944693922996521,0.18072649836540222,-0.6523118615150452,0.00760603416711092,0.005072626750916243,-0.029375076293945312,0,0,0
2337288205,d4:22:cd:00:30:92,0.24405188858509064,0.6944694519042969,0.18072403967380524,-0.6523074507713318,0.00018450994684826583,-0.0014769736444577575,-0.04282951354980469,0,0,0
2337304872,d4:22:cd:00:30:92,0.2440493404865265,0.6944753527641296,0.18072792887687683,-0.6523011922836304,0.002004017122089863,-0.014580420218408108,-0.06711578369140625,0,0,0
2337321539,d4:22:cd:00:30:92,0.24405570328235626,0.6944760680198669,0.18072818219661713,-0.6522979736328125,0.0061492882668972015,0.004548265133053064,-0.050978660583496094,0,0,0
2337338206,d4:22:cd:00:30:92,0.24406547844409943,0.6944807171821594,0.18073098361492157,-0.652288556098938,-0.0016050465637817979,-0.006404763553291559,-0.043456077575683594,0,0,0
2337354873,d4:22:cd:00:30:92,0.2440585196018219,0.6944891214370728,0.18072688579559326,-0.6522833108901978,-0.004062348045408726,0.012964198365807533,-0.05758094787597656,0,0,0
2337371540,d4:22:cd:00:30:92,0.24406053125858307,0.6944862008094788,0.1807284653186798,-0.652285099029541,0.002639464568346739,-0.00307665579020977,-0.03555774688720703,0,0,0
2337388207,d4:22:cd:00:30:92,0.24407251179218292,0.6944904923439026,0.18074198067188263,-0.6522722840309143,-0.020564645528793335,0.0013737105764448643,-0.03825855255126953,0,0,0
2337404874,d4:22:cd:00:30:92,0.244069442152977,0.6944849491119385,0.18074175715446472,-0.6522796750068665,0.003561455523595214,-0.001224627485498786,-0.056777000427246094,0,0,0
2337421541,d4:22:cd:00:30:92,0.24406389892101288,0.6944909691810608,0.18072162568569183,-0.6522809267044067,-0.01780995912849903,0.008898944593966007,-0.03845500946044922,0,0,0
2337438208,d4:22:cd:00:30:92,0.2440713793039322,0.6944868564605713,0.18072932958602905,-0.6522802710533142,-0.003125828690826893,-0.007590500172227621,-0.04241180419921875,0,0,0
2337454875,d4:22:cd:00:30:92,0.2440577894449234,0.6944937109947205,0.18071696162223816,-0.6522814631462097,-0.013658988289535046,0.020987195894122124,-0.05486583709716797,0,0,0
2337471542,d4:22:cd:00:30:92,0.24407091736793518,0.6944951415061951,0.18072523176670074,-0.6522727012634277,0.00011108593753306195,-0.017360251396894455,-0.04998493194580078,0,0,0
2337488209,d4:22:cd:00:30:92,0.2440686672925949,0.6944957971572876,0.18071871995925903,-0.6522746682167053,-0.008372907526791096,0.014529907144606113,-0.05173301696777344,0,0,0
2337504876,d4:22:cd:00:30:92,0.24406419694423676,0.6945043802261353,0.18070530891418457,-0.6522709727287292,-0.0006601455388590693,-0.006365648936480284,-0.037528038024902344,0,0,0
2337521543,d4:22:cd:00:30:92,0.24405016005039215,0.6945021152496338,0.18069836497306824,-0.6522805094718933,-0.01139334961771965,0.013911670073866844,-0.03966712951660156,0,0,0
2337538210,d4:22:cd:00:30:92,0.24404843151569366,0.6944995522499084,0.18071235716342926,-0.6522800922393799,0.010967557318508625,-0.004062795080244541,-0.055497169494628906,0,0,0
2337554877,d4:22:cd:00:30:92,0.24406246840953827,0.694489598274231,0.18072952330112457,-0.6522806882858276,-0.008616871200501919,-0.0006868552882224321,-0.027400970458984375,0,0,0
2337571544,d4:22:cd:00:30:92,0.2440609186887741,0.6944912672042847,0.18072007596492767,-0.6522819995880127,0.0007681022980250418,0.005086707882583141,-0.03489875793457031,0,0,0
2337588211,d4:22:cd:00:30:92,0.24406495690345764,0.6944863796234131,0.18072368204593658,-0.6522846221923828,-0.007858939468860626,0.0033754927571862936,-0.05775737762451172,0,0,0
2337604878,d4:22:cd:00:30:92,0.24404951930046082,0.6944907903671265,0.18070730566978455,-0.6522902250289917,0.0065899440087378025,-0.005612857174128294,-0.04596710205078125,0,0,0
2337621545,d4:22:cd:00:30:92,0.2440635859966278,0.694481372833252,0.18071745336055756,-0.6522924304008484,-0.020948639139533043,0.014413679949939251,-0.02093219757080078,0,0,0
2337638212,d4:22:cd:00:30:92,0.24406656622886658,0.6944895386695862,0.18071195483207703,-0.6522840857505798,0.010462194681167603,-0.007374139502644539,-0.07403945922851562,0,0,0
2337654879,d4:22:cd:00:30:92,0.2440778762102127,0.6944911479949951,0.18071720004081726,-0.6522767543792725,-0.007000425830483437,0.005379509646445513,-0.043183326721191406,0,0,0
2337671546,d4:22:cd:00:30:92,0.2440623939037323,0.6945022940635681,0.18071426451206207,-0.6522713899612427,0.002173887100070715,-0.002966687548905611,-0.043318748474121094,0,0,0
2337688213,d4:22:cd:00:30:92,0.24407759308815002,0.6944980621337891,0.1807437539100647,-0.6522620916366577,0.007589159067720175,-0.0158698670566082,-0.0635519027709961,0,0,0
2337704880,d4:22:cd:00:30:92,0.2440609633922577,0.6945073008537292,0.18072442710399628,-0.6522637605667114,-0.007776686456054449,0.013832992874085903,-0.042433738708496094,0,0,0
2337721547,d4:22:cd:00:30:92,0.24407130479812622,0.6945055723190308,0.18073755502700806,-0.6522581577301025,-0.0008736003655940294,-0.004186844918876886,-0.038974761962890625,0,0,0
2337738214,d4:22:cd:00:30:92,0.24406155943870544,0.6945069432258606,0.1807468831539154,-0.6522576808929443,0.006824856158345938,0.007117323111742735,-0.06078624725341797,0,0,0
2337754881,d4:22:cd:00:30:92,0.2440686672925949,0.6945006847381592,0.18076246976852417,-0.6522573828697205,0.014649486169219017,-0.000430932966992259,-0.029821395874023438,0,0,0
2337771548,d4:22:cd:00:30:92,0.24407127499580383,0.6945034265518188,0.18076147139072418,-0.6522538661956787,-0.020530223846435547,0.015553596429526806,-0.03879356384277344,0,0,0
2337788215,d4:22:cd:00:30:92,0.24408698081970215,0.6945005059242249,0.18077071011066437,-0.6522483825683594,-0.005044464021921158,-0.015252300538122654,-0.045662879943847656,0,0,0
2337804882,d4:22:cd:00:30:92,0.2440824657678604,0.6944992542266846,0.18077564239501953,-0.6522501707077026,-0.011879377998411655,0.022502390667796135,-0.03489875793457031,0,0,0
2337821549,d4:22:cd:00:30:92,0.24407890439033508,0.6945009827613831,0.18077032268047333,-0.6522510051727295,0.017081642523407936,-0.01215843390673399,-0.0488433837890625,0,0,0
2337838216,d4:22:cd:00:30:92,0.24407356977462769,0.6945004463195801,0.18077035248279572,-0.6522537469863892,0.00780127290636301,0.0035337398294359446,-0.02649688720703125,0,0,0
2337854883,d4:22:cd:00:30:92,0.24406443536281586,0.6945031881332397,0.1807611584663391,-0.6522567272186279,0.022218529134988785,-0.0071479445323348045,-0.0245819091796875,0,0,0
2337871550,d4:22:cd:00:30:92,0.2440870851278305,0.6944959759712219,0.18077941238880157,-0.6522507667541504,-0.009788190945982933,0.005465785972774029,-0.028812408447265625,0,0,0
2337888217,d4:22:cd:00:30:92,0.24406321346759796,0.6945080757141113,0.180765300989151,-0.6522508859634399,0.008933588862419128,-0.010776453651487827,-0.048150062561035156,0,0,0
2337904884,d4:22:cd:00:30:92,0.24409979581832886,0.6945040225982666,0.18079093098640442,-0.6522343158721924,0.015679210424423218,-0.0006519872695207596,-0.040904998779296875,0,0,0
2337921551,d4:22:cd:00:30:92,0.24407094717025757,0.694527268409729,0.18075965344905853,-0.6522289514541626,-0.004329110495746136,0.011130274273455143,-0.04056072235107422,0,0,0
2337938218,d4:22:cd:00:30:92,0.24409696459770203,0.6945174932479858,0.18077731132507324,-0.6522247791290283,0.022555585950613022,-0.008884863927960396,-0.06259632110595703,0,0,0
2337954885,d4:22:cd:00:30:92,0.24408017098903656,0.6945343017578125,0.18076485395431519,-0.6522167325019836,-0.004091181326657534,0.004241605289280415,-0.032784461975097656,0,0,0
2337971552,d4:22:cd:00:30:92,0.24410684406757355,0.6945253610610962,0.1807955652475357,-0.6522075533866882,0.010196884162724018,-0.00878942385315895,-0.047310829162597656,0,0,0
2337988219,d4:22:cd:00:30:92,0.2440587431192398,0.6945400238037109,0.18077704310417175,-0.6522152423858643,-0.0151479197666049,-0.007141015492379665,-0.06045722961425781,0,0,0
2338004886,d4:22:cd:00:30:92,0.24406662583351135,0.6945303082466125,0.1807887703180313,-0.6522193551063538,0.02810228429734707,-0.016290517523884773,-0.042168617248535156,0,0,0
2338021553,d4:22:cd:00:30:92,0.24404576420783997,0.6945429444313049,0.18077147006988525,-0.6522184610366821,-0.012092051096260548,0.030202411115169525,-0.04183673858642578,0,0,0
2338038220,d4:22:cd:00:30:92,0.24404217302799225,0.694546103477478,0.18077352643013,-0.652215838432312,0.009417830035090446,-0.022531447932124138,-0.043351173400878906,0,0,0
2338054887,d4:22:cd:00:30:92,0.2440403699874878,0.6945459842681885,0.1807747185230255,-0.6522163152694702,-0.003791115013882518,0.017881259322166443,-0.04825115203857422,0,0,0
2338071554,d4:22:cd:00:30:92,0.24406969547271729,0.6945387721061707,0.18078188598155975,-0.6522110104560852,-0.0016417026054114103,-0.014266831800341606,-0.0439453125,0,0,0
2338088221,d4:22:cd:00:30:92,0.24405723810195923,0.6945415735244751,0.180765762925148,-0.6522171497344971,-0.02538950741291046,0.02546103112399578,-0.05228900909423828,0,0,0
2338104888,d4:22:cd:00:30:92,0.24407343566417694,0.6945310831069946,0.18078769743442535,-0.6522161960601807,0.009703479707241058,-0.024196172133088112,-0.04066181182861328,0,0,0
2338121555,d4:22:cd:00:30:92,0.24407273530960083,0.6945313215255737,0.1808031052350998,-0.6522119045257568,-0.007242155261337757,0.01151628140360117,-0.04911231994628906,0,0,0
2338138222,d4:22:cd:00:30:92,0.24404488503932953,0.69454026222229,0.18079818785190582,-0.6522141695022583,0.03285104036331177,-0.01437702402472496,-0.05722618103027344,0,0,0
2338154889,d4:22:cd:00:30:92,0.24405166506767273,0.694547176361084,0.18079997599124908,-0.6522037982940674,-0.004372695926576853,-0.00441996892914176,-0.03668689727783203,0,0,0
2338171556,d4:22:cd:00:30:92,0.24403886497020721,0.6945571899414062,0.18079033493995667,-0.6522005796432495,-0.0035841420758515596,-0.0050732968375086784,-0.038539886474609375,0,0,0
2338188223,d4:22:cd:00:30:92,0.2440514713525772,0.6945508718490601,0.18080292642116547,-0.6521991491317749,-0.010379495099186897,0.010391340591013432,-0.048152923583984375,0,0,0
2338204890,d4:22:cd:00:30:92,0.24403193593025208,0.6945644617080688,0.18077696859836578,-0.6521992087364197,0.001721385051496327,-0.009798137471079826,-0.043056488037109375,0,0,0
2338221557,d4:22:cd:00:30:92,0.24405057728290558,0.6945546269416809,0.18078084290027618,-0.6522015333175659,0.0014121548738330603,-0.006793452892452478,-0.04972362518310547,0,0,0
2338238224,d4:22:cd:00:30:92,0.24402256309986115,0.6945682168006897,0.1807718425989151,-0.6521999835968018,-0.004615095444023609,-0.003721043700352311,-0.06397533416748047,0,0,0
2338254891,d4:22:cd:00:30:92,0.2440459281206131,0.6945682764053345,0.18078501522541046,-0.6521875858306885,0.023406164720654488,-0.008705605752766132,-0.035701751708984375,0,0,0
2338271558,d4:22:cd:00:30:92,0.24403132498264313,0.6945768594741821,0.18076248466968536,-0.6521902680397034,-0.0063776071183383465,0.003920864313840866,-0.02880859375,0,0,0
2338288225,d4:22:cd:00:30:92,0.244038924574852,0.694574773311615,0.18077434599399567,-0.6521862745285034,0.003171537071466446,-0.01931174285709858,-0.051421165466308594,0,0,0
2338304892,d4:22:cd:00:30:92,0.24401289224624634,0.694591760635376,0.18074610829353333,-0.6521857976913452,-0.02050798386335373,0.012344620190560818,-0.04163837432861328,0,0,0
2338321559,d4:22:cd:00:30:92,0.2440280169248581,0.6945820450782776,0.18075701594352722,-0.6521875262260437,0.0015594499418511987,-0.000848231662530452,-0.03679656982421875,0,0,0
2338338226,d4:22:cd:00:30:92,0.2440069317817688,0.694586455821991,0.18074184656143188,-0.6521949172019958,-0.00008705829532118514,0.007465332746505737,-0.02710247039794922,0,0,0
2338354893,d4:22:cd:00:30:92,0.24401824176311493,0.6945846676826477,0.1807621419429779,-0.6521868705749512,0.02622477523982525,-0.02268880046904087,-0.046417236328125,0,0,0
2338371560,d4:22:cd:00:30:92,0.24402634799480438,0.6945990920066833,0.18077266216278076,-0.6521655321121216,-0.01753593236207962,0.004514961503446102,-0.05547523498535156,0,0,0
2338388227,d4:22:cd:00:30:92,0.24401381611824036,0.6946018934249878,0.18076938390731812,-0.6521680951118469,-0.007761822547763586,-0.02206832729279995,-0.033379554748535156,0,0,0
2338404894,d4:22:cd:00:30:92,0.24402958154678345,0.6946006417274475,0.1807863712310791,-0.6521590352058411,-0.015027223154902458,0.0038146956358104944,-0.04809093475341797,0,0,0
2338421561,d4:22:cd:00:30:92,0.24401377141475677,0.6946108341217041,0.18076421320438385,-0.652160108089447,-0.0006493051187135279,-0.009394249878823757,-0.03706836700439453,0,0,0
2338438228,d4:22:cd:00:30:92,0.24404022097587585,0.694596529006958,0.18078649044036865,-0.6521592736244202,-0.014501073397696018,0.004889345727860928,-0.038715362548828125,0,0,0
2338454895,d4:22:cd:00:30:92,0.24401657283306122,0.6945996284484863,0.18075789511203766,-0.6521726250648499,0.016831420361995697,-0.009358040057122707,-0.04300212860107422,0,0,0
2338471562,d4:22:cd:00:30:92,0.24403178691864014,0.694593608379364,0.18077513575553894,-0.6521686315536499,0.003493395633995533,0.005898283328860998,-0.05119609832763672,0,0,0
2338488229,d4:22:cd:00:30:92,0.24399249255657196,0.6946049928665161,0.18072670698165894,-0.6521847248077393,0.0023419687058776617,-0.0049508120864629745,-0.05123138427734375,0,0,0
2338504896,d4:22:cd:00:30:92,0.24403201043605804,0.6945863366127014,0.1807498335838318,-0.6521834135055542,-0.005439746659249067,-0.0006931136595085263,-0.032550811767578125,0,0,0
2338521563,d4:22:cd:00:30:92,0.24400129914283752,0.694602370262146,0.18072563409805298,-0.6521844863891602,-0.0131985517218709,-0.0032400437630712986,-0.041996002197265625,0,0,0
2338538230,d4:22:cd:00:30:92,0.24403144419193268,0.6945875883102417,0.1807364672422409,-0.6521860957145691,0.010073170065879822,0.002177239628508687,-0.045403480529785156,0,0,0
2338554897,d4:22:cd:00:30:92,0.24402351677417755,0.6945972442626953,0.1807272732257843,-0.6521812677383423,0.005377050954848528,0.0027843008283525705,-0.056441307067871094,0,0,0
2338571564,d4:22:cd:00:30:92,0.24404527246952057,0.6946007013320923,0.18073849380016327,-0.6521662473678589,0.008384417742490768,-0.011867867782711983,-0.034912109375,0,0,0
2338588231,d4:22:cd:00:30:92,0.2440284788608551,0.6946032643318176,0.18073557317256927,-0.6521705389022827,-0.010856247507035732,0.012843948788940907,-0.03839874267578125,0,0,0
2338604898,d4:22:cd:00:30:92,0.2440359741449356,0.6946108341217041,0.18073169887065887,-0.6521608829498291,-0.001185177476145327,-0.015442957170307636,-0.03587627410888672,0,0,0
2338621565,d4:22:cd:00:30:92,0.24403607845306396,0.6946196556091309,0.18073195219039917,-0.652151346206665,-0.012577744200825691,0.02251379005610943,-0.033827781677246094,0,0,0
2338638232,d4:22:cd:00:30:92,0.24402453005313873,0.6946330666542053,0.18072514235973358,-0.6521432399749756,0.00851930771023035,-0.024563850834965706,-0.041121482849121094,0,0,0
2338654899,d4:22:cd:00:30:92,0.24402092397212982,0.6946238875389099,0.18074488639831543,-0.6521488428115845,-0.024392304942011833,0.00916537269949913,-0.0484161376953125,0,0,0
2338671566,d4:22:cd:00:30:92,0.2440117597579956,0.6946297883987427,0.18073202669620514,-0.652149498462677,0.028264107182621956,-0.012150835245847702,-0.04652595520019531,0,0,0
2338688233,d4:22:cd:00:30:92,0.2440478652715683,0.694624662399292,0.1807538866996765,-0.6521353721618652,-0.004321958404034376,0.008622906170785427,-0.036263465881347656,0,0,0
2338704900,d4:22:cd:00:30:92,0.24404186010360718,0.6946331262588501,0.18074575066566467,-0.6521310806274414,-0.0026517577935010195,-0.005582236219197512,-0.042064666748046875,0,0,0
2338721567,d4:22:cd:00:30:92,0.244079127907753,0.6946157813072205,0.1807689219713211,-0.6521288752555847,-0.009401177987456322,0.004204055294394493,-0.040802001953125,0,0,0
2338738234,d4:22:cd:00:30:92,0.2440376728773117,0.6946260929107666,0.18073181807994843,-0.6521439552307129,0.007467791438102722,-0.002989038825035095,-0.05073356628417969,0,0,0
2338754901,d4:22:cd:00:30:92,0.24405883252620697,0.6946119070053101,0.18075647950172424,-0.6521442532539368,-0.002575204474851489,-0.007187729701399803,-0.043376922607421875,0,0,0
2338771568,d4:22:cd:00:30:92,0.2440410852432251,0.6946201324462891,0.18073783814907074,-0.6521472334861755,-0.00820314884185791,0.012111719697713852,-0.04926586151123047,0,0,0
2338788235,d4:22:cd:00:30:92,0.2440662384033203,0.6946071982383728,0.1807655245065689,-0.6521439552307129,0.01321509201079607,-0.0048980629071593285,-0.04831504821777344,0,0,0
2338804902,d4:22:cd:00:30:92,0.2440454214811325,0.694618284702301,0.1807466596364975,-0.652145266532898,-0.002346439054235816,0.016442060470581055,-0.038956642150878906,0,0,0
2338821569,d4:22:cd:00:30:92,0.24406692385673523,0.6946166753768921,0.1807609349489212,-0.6521349549293518,0.00297719263471663,-0.009170289151370525,-0.044053077697753906,0,0,0
2338838236,d4:22:cd:00:30:92,0.24405236542224884,0.6946254968643188,0.18074434995651245,-0.6521356105804443,-0.010336579754948616,-0.0005406778655014932,-0.056387901306152344,0,0,0
2338854903,d4:22:cd:00:30:92,0.2440832257270813,0.6945029497146606,0.1807612031698227,-0.6522499322891235,0.0008079993422143161,-0.012834114022552967,-0.04125404357910156,0,0,0
2338871570,d4:22:cd:00:30:92,0.24406148493289948,0.6945158839225769,0.1807449907064438,-0.6522486805915833,0.006487240083515644,-0.002082693623378873,-0.033629417419433594,0,0,0
2338888237,d4:22:cd:00:30:92,0.2440645545721054,0.6945192813873291,0.18075591325759888,-0.652241051197052,0.006700918544083834,-0.005318267270922661,-0.04300880432128906,0,0,0
2338904904,d4:22:cd:00:30:92,0.2440502792596817,0.6945173740386963,0.18077352643013,-0.6522433161735535,0.00333827780559659,0.007314684800803661,-0.031134605407714844,0,0,0
2338921571,d4:22:cd:00:30:92,0.24403733015060425,0.6945206522941589,0.1807754635810852,-0.6522440910339355,-0.01054813526570797,-0.013338359072804451,-0.048562049865722656,0,0,0
2338938238,d4:22:cd:00:30:92,0.24404872953891754,0.694518506526947,0.18078424036502838,-0.6522397994995117,-0.008509138599038124,-0.002767761005088687,-0.04951000213623047,0,0,0
2338954905,d4:22:cd:00:30:92,0.24401725828647614,0.6945245265960693,0.18075935542583466,-0.6522520780563354,-0.021587887778878212,-0.016999501734972,-0.03091144561767578,0,0,0
2338971572,d4:22:cd:00:30:92,0.24404580891132355,0.6945104002952576,0.18076886236667633,-0.6522538065910339,0.00410839170217514,-0.006974274758249521,-0.031742095947265625,0,0,0
2338988239,d4:22:cd:00:30:92,0.2440241426229477,0.6945143342018127,0.18074457347393036,-0.6522644758224487,-0.016853434965014458,0.004011610522866249,-0.055281639099121094,0,0,0
2339004906,d4:22:cd:00:30:92,0.24404455721378326,0.6944958567619324,0.18076156079769135,-0.6522717475891113,0.0025668228045105934,-0.016968656331300735,-0.030328750610351562,0,0,0
2339021573,d4:22:cd:00:30:92,0.24402475357055664,0.6944984197616577,0.18075089156627655,-0.6522791981697083,0.0004482552467379719,0.019901147112250328,-0.04594993591308594,0,0,0
2339038240,d4:22:cd:00:30:92,0.2440541833639145,0.6944805383682251,0.1807805299758911,-0.6522793173789978,0.004454948473721743,-0.019727030768990517,-0.04500579833984375,0,0,0
2339054907,d4:22:cd:00:30:92,0.24403153359889984,0.6944915652275085,0.18076464533805847,-0.652280330657959,-0.018470216542482376,0.013790078461170197,-0.03699970245361328,0,0,0
2339071574,d4:22:cd:00:30:92,0.24404215812683105,0.6944891214370728,0.18077978491783142,-0.6522748470306396,0.0002988368214573711,-0.02235889434814453,-0.04172325134277344,0,0,0
2339088241,d4:22:cd:00:30:92,0.24403424561023712,0.6944976449012756,0.18076692521572113,-0.6522721648216248,-0.010856359265744686,0.024588435888290405,-0.032820701599121094,0,0,0
2339104908,d4:22:cd:00:30:92,0.2440388798713684,0.6944953203201294,0.1807851493358612,-0.6522678732872009,0.02622455172240734,-0.015650823712348938,-0.04158782958984375,0,0,0
2339121575,d4:22:cd:00:30:92,0.2440284937620163,0.6945019960403442,0.18078576028347015,-0.6522647142410278,-0.006642469670623541,0.03112104907631874,-0.06939029693603516,0,0,0
2339138242,d4:22:cd:00:30:92,0.24401548504829407,0.69450843334198,0.18078957498073578,-0.6522616147994995,0.013174748048186302,-0.027827586978673935,-0.05542469024658203,0,0,0
2339154909,d4:22:cd:00:30:92,0.2440101057291031,0.6945071816444397,0.1807921677827835,-0.6522641181945801,-0.0006350002950057387,-0.0006354473298415542,-0.04014301300048828,0,0,0
2339171576,d4:22:cd:00:30:92,0.24400360882282257,0.6945152878761292,0.18078990280628204,-0.6522586345672607,0.009082895703613758,0.0038669975474476814,-0.039325714111328125,0,0,0
2339188243,d4:22:cd:00:30:92,0.2440233677625656,0.694502592086792,0.18081305921077728,-0.6522582769393921,0.005207851994782686,-0.02119998075067997,-0.02652740478515625,0,0,0
2339204910,d4:22:cd:00:30:92,0.2440013289451599,0.6945161819458008,0.18078459799289703,-0.6522599458694458,0.0014624452451243997,0.0008837702334858477,-0.047801971435546875,0,0,0
2339221577,d4:22:cd:00:30:92,0.24402809143066406,0.6945029497146606,0.1808137148618698,-0.6522559523582458,-0.006335139274597168,-0.0063204993493855,-0.0518646240234375,0,0,0
2339238244,d4:22:cd:00:30:92,0.24400165677070618,0.6945045590400696,0.18079450726509094,-0.6522694826126099,-0.0007523446111008525,0.003492390038445592,-0.040297508239746094,0,0,0
2339254911,d4:22:cd:00:30:92,0.24402572214603424,0.6944857239723206,0.18081314861774445,-0.6522754430770874,0.02331184223294258,-0.003836823394522071,-0.049201011657714844,0,0,0
2339271578,d4:22:cd:00:30:92,0.2439773827791214,0.6944892406463623,0.18077345192432404,-0.6523007154464722,-0.024392081424593925,0.019921261817216873,-0.04718971252441406,0,0,0
2339288245,d4:22:cd:00:30:92,0.24400292336940765,0.6944809556007385,0.18080078065395355,-0.6522924304008484,0.027491534128785133,-0.010772653855383396,-0.03369331359863281,0,0,0
2339304912,d4:22:cd:00:30:92,0.24398091435432434,0.6944923400878906,0.1807718276977539,-0.6522965431213379,0.0029833391308784485,0.004916837904602289,-0.05781269073486328,0,0,0
2339321579,d4:22:cd:00:30:92,0.2440115064382553,0.6944796442985535,0.18078766763210297,-0.6522941589355469,0.008258133195340633,-0.007958625443279743,-0.05012989044189453,0,0,0
2339338246,d4:22:cd:00:30:92,0.24400493502616882,0.694489061832428,0.18078191578388214,-0.6522881984710693,-0.013118757866322994,0.010487004183232784,-0.03993988037109375,0,0,0
2339354913,d4:22:cd:00:30:92,0.24401408433914185,0.6944862008094788,0.18078243732452393,-0.6522877216339111,0.009615080431103706,-0.014018508605659008,-0.04231739044189453,0,0,0
2339371580,d4:22:cd:00:30:92,0.24401311576366425,0.694490373134613,0.18077272176742554,-0.6522864699363708,0.0036211335100233555,0.014179438352584839,-0.04308128356933594,0,0,0
2339388247,d4:22:cd:00:30:92,0.24402034282684326,0.6944968104362488,0.180780291557312,-0.6522746682167053,0.024718185886740685,-0.004189526662230492,-0.03252887725830078,0,0,0
2339404914,d4:22:cd:00:30:92,0.24402347207069397,0.6945015788078308,0.18079346418380737,-0.6522646546363831,-0.012997613288462162,0.011749181896448135,-0.053223609924316406,0,0,0
2339421581,d4:22:cd:00:30:92,0.24400341510772705,0.6945174336433411,0.18077218532562256,-0.6522612571716309,0.002260721754282713,-0.014924407005310059,-0.035101890563964844,0,0,0
2339438248,d4:22:cd:00:30:92,0.2440042495727539,0.6945101022720337,0.18078261613845825,-0.6522657871246338,0.0011590264039114118,0.001269553555175662,-0.04230785369873047,0,0,0
2339454915,d4:22:cd:00:30:92,0.24398843944072723,0.6945263743400574,0.18076327443122864,-0.6522597074508667,-0.006882634479552507,-0.0065171909518539906,-0.04238414764404297,0,0,0
2339471582,d4:22:cd:00:30:92,0.24400873482227325,0.6945130825042725,0.18078365921974182,-0.6522606611251831,0.000273244600975886,0.0021365603897720575,-0.03748035430908203,0,0,0
2339488249,d4:22:cd:00:30:92,0.24397124350070953,0.6945242285728455,0.18076783418655396,-0.6522672772407532,-0.0002383765677222982,0.0038202833384275436,-0.036826133728027344,0,0,0
2339504916,d4:22:cd:00:30:92,0.2439935803413391,0.6945177316665649,0.18077991902828217,-0.6522623300552368,0.0181349478662014,-0.00872348714619875,-0.056387901306152344,0,0,0
2339521583,d4:22:cd:00:30:92,0.24396169185638428,0.6945301294326782,0.18075750768184662,-0.6522673964500427,-0.006494504399597645,0.01529141515493393,-0.0458221435546875,0,0,0
2339538250,d4:22:cd:00:30:92,0.24398323893547058,0.6945197582244873,0.18078190088272095,-0.6522635817527771,0.00630977051332593,-0.011135191656649113,-0.03854846954345703,0,0,0
2339554917,d4:22:cd:00:30:92,0.24395258724689484,0.6945313811302185,0.18076106905937195,-0.6522684693336487,-0.004560781642794609,0.0063705663196742535,-0.05356884002685547,0,0,0
2339571584,d4:22:cd:00:30:92,0.2439711093902588,0.6945233345031738,0.18078333139419556,-0.6522639393806458,0.009131845086812973,-0.008477846160531044,-0.024898529052734375,0,0,0
2339588251,d4:22:cd:00:30:92,0.24396570026874542,0.6945287585258484,0.18077205121517181,-0.652263343334198,-0.010962863452732563,0.024723662063479424,-0.049277305603027344,0,0,0
2339604918,d4:22:cd:00:30:92,0.24396078288555145,0.6945311427116394,0.18078528344631195,-0.6522589921951294,-0.0053736986592411995,-0.020139187574386597,-0.05216407775878906,0,0,0
2339621585,d4:22:cd:00:30:92,0.24395368993282318,0.6945309042930603,0.18078821897506714,-0.6522611379623413,0.0035336280707269907,0.013688604347407818,-0.03782939910888672,0,0,0
2339638252,d4:22:cd:00:30:92,0.2439475655555725,0.6945326328277588,0.18077866733074188,-0.6522642374038696,-0.011103900149464607,-0.01336629781872034,-0.06548023223876953,0,0,0
2339654919,d4:22:cd:00:30:92,0.24395348131656647,0.6945397257804871,0.18079419434070587,-0.6522500514984131,-0.010244715958833694,0.016317563131451607,-0.05465412139892578,0,0,0
2339671586,d4:22:cd:00:30:92,0.24393829703330994,0.6945472955703735,0.1807858943939209,-0.6522499322891235,-0.004842966794967651,-0.016042865812778473,-0.046500205993652344,0,0,0
2339688253,d4:22:cd:00:30:92,0.24393823742866516,0.6945419311523438,0.18080130219459534,-0.6522514224052429,-0.007404649164527655,-0.011784943751990795,-0.04197883605957031,0,0,0
2339704920,d4:22:cd:00:30:92,0.24392069876194,0.6945498585700989,0.18078731000423431,-0.6522535085678101,0.02279653400182724,-0.009184817783534527,-0.03712940216064453,0,0,0
2339721587,d4:22:cd:00:30:92,0.24394501745700836,0.6945433616638184,0.1807941198348999,-0.652249276638031,-0.0005259260069578886,-0.005010936874896288,-0.04167461395263672,0,0,0
2339738254,d4:22:cd:00:30:92,0.24393361806869507,0.6945530772209167,0.18077364563941956,-0.6522489190101624,-0.00749226612970233,-0.012758343480527401,-0.04101848602294922,0,0,0
2339754921,d4:22:cd:00:30:92,0.24395543336868286,0.6945429444313049,0.18077822029590607,-0.6522504091262817,0.005205169785767794,-0.015077066607773304,-0.04785442352294922,0,0,0
2339771588,d4:22:cd:00:30:92,0.243925079703331,0.694546103477478,0.18075554072856903,-0.6522645354270935,0.0001016983951558359,0.0028732591308653355,-0.03697967529296875,0,0,0
2339788255,d4:22:cd:00:30:92,0.24392209947109222,0.6945359110832214,0.1807500571012497,-0.6522780656814575,-0.013095847330987453,-0.006394705735146999,-0.037212371826171875,0,0,0
2339804922,d4:22:cd:00:30:92,0.24390903115272522,0.6945359706878662,0.18075673282146454,-0.6522810459136963,-0.0016095167957246304,0.005501771345734596,-0.03485870361328125,0,0,0
2339821589,d4:22:cd:00:30:92,0.24391557276248932,0.6945310235023499,0.18075990676879883,-0.6522829532623291,0.006798482034355402,-0.014436478726565838,-0.0550994873046875,0,0,0
2339838256,d4:22:cd:00:30:92,0.24392354488372803,0.694527804851532,0.18075452744960785,-0.6522848010063171,0.007113858591765165,0.004466906189918518,-0.038216590881347656,0,0,0
2339854923,d4:22:cd:00:30:92,0.2439398616552353,0.694525957107544,0.18076731264591217,-0.6522773504257202,-0.0007730195648036897,-0.009942079894244671,-0.04965019226074219,0,0,0
2339871590,d4:22:cd:00:30:92,0.24395106732845306,0.6945252418518066,0.18076260387897491,-0.6522751450538635,-0.017779113724827766,0.021289832890033722,-0.03870582580566406,0,0,0
2339888257,d4:22:cd:00:30:92,0.24393877387046814,0.6945339441299438,0.18075460195541382,-0.6522727012634277,0.006416609976440668,-0.0022961485665291548,-0.04517650604248047,0,0,0
2339904924,d4:22:cd:00:30:92,0.24394644796848297,0.6945345401763916,0.18076486885547638,-0.652266263961792,-0.003342636162415147,0.0010661567794159055,-0.05329322814941406,0,0,0
2339921591,d4:22:cd:00:30:92,0.2439521849155426,0.6945338845252991,0.18077078461647034,-0.652263343334198,0.005362522788345814,-0.012124236673116684,-0.054962158203125,0,0,0
2339938258,d4:22:cd:00:30:92,0.24395842850208282,0.694534420967102,0.18077543377876282,-0.6522592306137085,0.0029578586108982563,0.0007742488523945212,-0.033473968505859375,0,0,0
2339954925,d4:22:cd:00:30:92,0.24396337568759918,0.6945390701293945,0.18077535927295685,-0.6522523164749146,-0.012026114389300346,-0.0013772868551313877,-0.052814483642578125,0,0,0
2339971592,d4:22:cd:00:30:92,0.24397866427898407,0.6945362091064453,0.18078362941741943,-0.6522473692893982,-0.003821512684226036,-0.0028234156779944897,-0.030614852905273438,0,0,0
2339988259,d4:22:cd:00:30:92,0.24398086965084076,0.6945298314094543,0.1807745099067688,-0.6522558331489563,-0.005980201065540314,-0.008336138911545277,-0.037654876708984375,0,0,0
2340004926,d4:22:cd:00:30:92,0.2439967840909958,0.6945220828056335,0.18078181147575378,-0.652256190776825,0.010061211884021759,-0.0036600246094167233,-0.05463600158691406,0,0,0
2340021593,d4:22:cd:00:30:92,0.24398383498191833,0.6945239305496216,0.18077334761619568,-0.65226149559021,-0.010057635605335236,-0.008327645249664783,-0.044943809509277344,0,0,0
2340038260,d4:22:cd:00:30:92,0.24399293959140778,0.694513738155365,0.1807737946510315,-0.6522685885429382,0.009612509980797768,-0.0005341959767974913,-0.03973960876464844,0,0,0
2340054927,d4:22:cd:00:30:92,0.24399271607398987,0.6945160627365112,0.1807689666748047,-0.652267575263977,0.009056409820914268,-0.011680563911795616,-0.053386688232421875,0,0,0
2340071594,d4:22:cd:00:30:92,0.24400001764297485,0.6945133209228516,0.1807604432106018,-0.6522701978683472,-0.0032575896475464106,0.0007349106017500162,-0.036881446838378906,0,0,0
2340088261,d4:22:cd:00:30:92,0.2439955174922943,0.6945177316665649,0.18075765669345856,-0.6522680521011353,-0.01672055758535862,0.016400933265686035,-0.040938377380371094,0,0,0
2340104928,d4:22:cd:00:30:92,0.24399587512016296,0.694516658782959,0.1807466298341751,-0.65227210521698,0.002371137263253331,-0.0018104549963027239,-0.04234886169433594,0,0,0
2340121595,d4:22:cd:00:30:92,0.24399615824222565,0.6945152282714844,0.18075931072235107,-0.6522699594497681,0.01235713716596365,0.00203195633366704,-0.035668373107910156,0,0,0
2340138262,d4:22:cd:00:30:92,0.2440110445022583,0.6945160031318665,0.18076929450035095,-0.6522606611251831,-0.00044166159932501614,-0.007986118085682392,-0.056931495666503906,0,0,0
2340154929,d4:22:cd:00:30:92,0.24402357637882233,0.694514274597168,0.18077866733074188,-0.6522552967071533,-0.006599667016416788,0.005439187865704298,-0.047356605529785156,0,0,0
2340171596,d4:22:cd:00:30:92,0.244023859500885,0.6945151686668396,0.18078187108039856,-0.652253270149231,0.006630176678299904,-0.008188620209693909,-0.03436279296875,0,0,0
2340188263,d4:22:cd:00:30:92,0.24401764571666718,0.6945136189460754,0.18078747391700745,-0.652255654335022,-0.0095663545653224,-0.005934939719736576,-0.04947185516357422,0,0,0
2340204930,d4:22:cd:00:30:92,0.24401351809501648,0.694518506526947,0.18079516291618347,-0.6522499918937683,0.0026471756864339113,-0.007082231342792511,-0.03964996337890625,0,0,0
2340221597,d4:22:cd:00:30:92,0.24401207268238068,0.6945168375968933,0.18079213798046112,-0.6522532105445862,-0.0013977382332086563,-0.014182791113853455,-0.047476768493652344,0,0,0
2340238264,d4:22:cd:00:30:92,0.24401359260082245,0.694512128829956,0.1807946264743805,-0.652256965637207,-0.004689190071076155,-0.008924425579607487,-0.07187843322753906,0,0,0
2340254931,d4:22:cd:00:30:92,0.24401536583900452,0.6945110559463501,0.18078666925430298,-0.6522595882415771,0.010620664805173874,-0.010969121940433979,-0.03864097595214844,0,0,0
2340271598,d4:22:cd:00:30:92,0.24401843547821045,0.694514274597168,0.1807728111743927,-0.6522588133811951,-0.023450644686818123,0.01662444695830345,-0.04805183410644531,0,0,0
2340288265,d4:22:cd:00:30:92,0.2440207451581955,0.6945104598999023,0.18078218400478363,-0.6522592902183533,-0.011386420577764511,-0.0009342841804027557,-0.04779529571533203,0,0,0
2340304932,d4:22:cd:00:30:92,0.24401135742664337,0.6945128440856934,0.18076848983764648,-0.6522642970085144,-0.005344418343156576,0.004346433095633984,-0.029912948608398438,0,0,0
2340321599,d4:22:cd:00:30:92,0.24402427673339844,0.6945183277130127,0.18076562881469727,-0.6522543430328369,-0.01283679623156786,-0.005399402696639299,-0.043743133544921875,0,0,0
2340338266,d4:22:cd:00:30:92,0.2440245896577835,0.6945164203643799,0.18075460195541382,-0.6522592306137085,-0.006585585884749889,0.0022387057542800903,-0.03055095672607422,0,0,0
2340354933,d4:22:cd:00:30:92,0.24401843547821045,0.6945207118988037,0.18075242638587952,-0.6522576212882996,0.010966886766254902,-0.01062200590968132,-0.04217815399169922,0,0,0
2340371600,d4:22:cd:00:30:92,0.24402529001235962,0.6945239901542664,0.18075428903102875,-0.6522509455680847,0.0008292330894619226,-0.00036901989369653165,-0.03874015808105469,0,0,0
2340388267,d4:22:cd:00:30:92,0.24404224753379822,0.6945281028747559,0.1807674616575241,-0.6522366404533386,-0.002979427808895707,0.005997746717184782,-0.048295021057128906,0,0,0
2340404934,d4:22:cd:00:30:92,0.24404814839363098,0.6945250630378723,0.1807861179113388,-0.6522325277328491,0.005016860086470842,-0.011758793145418167,-0.04015064239501953,0,0,0
2340421601,d4:22:cd:00:30:92,0.2440400868654251,0.6945322751998901,0.1807776540517807,-0.6522301435470581,-0.006224388722330332,-0.00036589070805348456,-0.047179222106933594,0,0,0
2340438268,d4:22:cd:00:30:92,0.24403871595859528,0.6945371627807617,0.1807849109172821,-0.6522234082221985,0.002491945866495371,-0.0007420629845000803,-0.05524730682373047,0,0,0
2340454935,d4:22:cd:00:30:92,0.24401938915252686,0.6945452690124512,0.18077923357486725,-0.6522237062454224,-0.0011979177361354232,-0.008804398588836193,-0.047061920166015625,0,0,0
2340471602,d4:22:cd:00:30:92,0.2440342754125595,0.6945462822914124,0.18077583611011505,-0.6522179245948792,0.009975941851735115,-0.008959963917732239,-0.04191875457763672,0,0,0
2340488269,d4:22:cd:00:30:92,0.24403445422649384,0.6945443153381348,0.18076469004154205,-0.6522231101989746,0.01220000721514225,0.0007210528128780425,-0.036210060119628906,0,0,0
2340504936,d4:22:cd:00:30:92,0.2440481036901474,0.6945321559906006,0.18077601492404938,-0.6522276401519775,-0.004768984392285347,-0.015853550285100937,-0.039191246032714844,0,0,0
2340521603,d4:22:cd:00:30:92,0.2440517544746399,0.6945266127586365,0.18076474964618683,-0.6522354483604431,0.0001907683035824448,-0.0020178749691694975,-0.042560577392578125,0,0,0
2340538270,d4:22:cd:00:30:92,0.24404487013816833,0.694528341293335,0.1807703673839569,-0.6522345542907715,-0.006260821595788002,0.012075287289917469,-0.04682636260986328,0,0,0
2340554937,d4:22:cd:00:30:92,0.24403980374336243,0.6945247650146484,0.18076880276203156,-0.6522407531738281,-0.006435273215174675,-0.00804154947400093,-0.033011436462402344,0,0,0
2340571604,d4:22:cd:00:30:92,0.24403218924999237,0.6945229172706604,0.1807830035686493,-0.652241587638855,-0.0058731380850076675,0.00766403554007411,-0.0418853759765625,0,0,0
2340588271,d4:22:cd:00:30:92,0.24403657019138336,0.6945271492004395,0.18077373504638672,-0.652238130569458,0.01390574686229229,0.005189524032175541,-0.03564262390136719,0,0,0
2340604938,d4:22:cd:00:30:92,0.24403499066829681,0.6945358514785767,0.18076181411743164,-0.6522327065467834,0.001401873305439949,0.002682826016098261,-0.054233551025390625,0,0,0
2340621605,d4:22:cd:00:30:92,0.24404633045196533,0.6945319771766663,0.18077048659324646,-0.6522301435470581,-0.008915708400309086,-0.004233112093061209,-0.03871631622314453,0,0,0
2340638272,d4:22:cd:00:30:92,0.24404624104499817,0.6945303678512573,0.18077775835990906,-0.652229905128479,0.007346200291067362,0.0006012498633936048,-0.038043975830078125,0,0,0
2340654939,d4:22:cd:00:30:92,0.24405141174793243,0.6945352554321289,0.18078875541687012,-0.6522196531295776,0.0032378085888922215,0.0036036993842571974,-0.05110740661621094,0,0,0
2340671606,d4:22:cd:00:30:92,0.24403983354568481,0.6945369243621826,0.18078278005123138,-0.6522238254547119,-0.006642134394496679,-0.0023602969013154507,-0.024827957153320312,0,0,0
2340688273,d4:22:cd:00:30:92,0.24403750896453857,0.6945345401763916,0.18079669773578644,-0.6522234678268433,-0.0036541016306728125,-0.005777362734079361,-0.03281593322753906,0,0,0
2340704940,d4:22:cd:00:30:92,0.24402983486652374,0.694534182548523,0.1807945817708969,-0.6522273421287537,-0.0011280699400231242,-0.005397838074713945,-0.05806255340576172,0,0,0
2340721607,d4:22:cd:00:30:92,0.24404416978359222,0.6945311427116394,0.18079601228237152,-0.6522247791290283,-0.00006370119081111625,-0.0013468890683725476,-0.03148365020751953,0,0,0
2340738274,d4:22:cd:00:30:92,0.2440430372953415,0.6945305466651917,0.18079841136932373,-0.652225136756897,-0.0018167132511734962,-0.0007606145809404552,-0.053009033203125,0,0,0
2340754941,d4:22:cd:00:30:92,0.24406948685646057,0.6945159435272217,0.1807977259159088,-0.6522310376167297,0.00011522092972882092,-0.008182809688150883,-0.05246925354003906,0,0,0
2340771608,d4:22:cd:00:30:92,0.24407728016376495,0.6945058703422546,0.1808023601770401,-0.652237594127655,-0.0002738033654168248,0.00973175372928381,-0.031220436096191406,0,0,0
