sep=,
Measurement Mode:,Extended (Quaternion)
StartTime:,Tue, 31 May 2022 11:52:06 GMT
© Xsens Technologies B. V. 2005-2022

Timestamp,Address,Quaternion_w,Quaternion_x,Quaternion_y,Quaternion_z,FreeAcc_x,FreeAcc_y,FreeAcc_z,Status,ClipCountAcc,ClipCountGyr
2037790331,d4:22:cd:00:30:92,0.7161916494369507,0.15287694334983826,-0.6761741638183594,0.08060990273952484,0.006034402642399073,0.001970266690477729,0.15461444854736328,0,0,0
2037806998,d4:22:cd:00:30:92,0.7161905169487,0.1528557687997818,-0.6761823296546936,0.08059237897396088,-0.003952156286686659,0.006969580892473459,0.1605062484741211,0,0,0
2037823665,d4:22:cd:00:30:92,0.7161900997161865,0.15282979607582092,-0.676192045211792,0.08056466281414032,-0.002399635035544634,0.008026797324419022,0.15879154205322266,0,0,0
2037840332,d4:22:cd:00:30:92,0.7161922454833984,0.1528068333864212,-0.6761968731880188,0.0805477648973465,0.022452769801020622,-0.006619112566113472,0.14478397369384766,0,0,0
2037856999,d4:22:cd:00:30:92,0.716166615486145,0.15264959633350372,-0.6762766242027283,0.08040517568588257,-0.003974060527980328,-0.00849885679781437,0.1540994644165039,0,0,0
2037873666,d4:22:cd:00:30:92,0.7161666750907898,0.15265586972236633,-0.6762731671333313,0.08042216300964355,-0.0034376292023807764,-0.0019494800362735987,0.17586708068847656,0,0,0
2037890333,d4:22:cd:00:30:92,0.7161670923233032,0.152660071849823,-0.6762717962265015,0.08042173087596893,-0.015539961867034435,0.014580643735826015,0.14267444610595703,0,0,0
2037907000,d4:22:cd:00:30:92,0.7161648273468018,0.15265913307666779,-0.6762737035751343,0.08042728900909424,-0.002248540287837386,0.006498191971331835,0.14198875427246094,0,0,0
2037923667,d4:22:cd:00:30:92,0.7161703109741211,0.15265868604183197,-0.6762661337852478,0.08044226467609406,-0.0007697786204516888,0.0038466579280793667,0.1527395248413086,0,0,0
2037940334,d4:22:cd:00:30:92,0.7161670923233032,0.15264439582824707,-0.6762733459472656,0.08043704926967621,-0.0006495286361314356,0.014369424432516098,0.15326595306396484,0,0,0
2037957001,d4:22:cd:00:30:92,0.7161651849746704,0.15265405178070068,-0.6762722730636597,0.08044648170471191,0.021349957212805748,0.0018824260914698243,0.15181732177734375,0,0,0
2037973668,d4:22:cd:00:30:92,0.7161594033241272,0.1526486873626709,-0.6762789487838745,0.08045165240764618,-0.003707632888108492,-0.0008140341960825026,0.14837932586669922,0,0,0
2037990335,d4:22:cd:00:30:92,0.7161520719528198,0.15266864001750946,-0.6762793064117432,0.08047594130039215,-0.001998205902054906,-0.002482781885191798,0.15311336517333984,0,0,0
2038007002,d4:22:cd:00:30:92,0.7161531448364258,0.1526675522327423,-0.6762779355049133,0.0804816335439682,-0.00702188303694129,0.010471358895301819,0.1490335464477539,0,0,0
2038023669,d4:22:cd:00:30:92,0.7161605358123779,0.15267115831375122,-0.6762694120407104,0.08047795295715332,-0.004790776874870062,0.002806428587064147,0.15742015838623047,0,0,0
2038040336,d4:22:cd:00:30:92,0.7161659002304077,0.15267294645309448,-0.676262378692627,0.08048637211322784,0.010044225491583347,-0.004599226173013449,0.15233707427978516,0,0,0
2038057003,d4:22:cd:00:30:92,0.716167688369751,0.15266293287277222,-0.676261842250824,0.0804930031299591,0.002184168668463826,0.004184162709861994,0.16419696807861328,0,0,0
2038073670,d4:22:cd:00:30:92,0.7161701321601868,0.1526612937450409,-0.6762598752975464,0.08049207925796509,-0.008781824260950089,0.00281492224894464,0.16074657440185547,0,0,0
2038090337,d4:22:cd:00:30:92,0.7161698341369629,0.15265566110610962,-0.6762638092041016,0.08047252893447876,0.005413036793470383,0.010671625845134258,0.14716529846191406,0,0,0
2038107004,d4:22:cd:00:30:92,0.716171145439148,0.15266385674476624,-0.6762606501579285,0.08047156035900116,-0.0028493432328104973,0.011533492244780064,0.14921951293945312,0,0,0
2038123671,d4:22:cd:00:30:92,0.716160774230957,0.15265241265296936,-0.6762750148773193,0.08046600222587585,-0.009703591465950012,-0.007072844076901674,0.15570735931396484,0,0,0
2038140338,d4:22:cd:00:30:92,0.716161847114563,0.15265467762947083,-0.6762732863426208,0.08046571910381317,-0.015640988945961,0.0011425982229411602,0.14617633819580078,0,0,0
2038157005,d4:22:cd:00:30:92,0.7161704301834106,0.1526660919189453,-0.6762626767158508,0.08045651018619537,0.005693322047591209,0.00910904724150896,0.1602640151977539,0,0,0
2038173672,d4:22:cd:00:30:92,0.716172456741333,0.1526634693145752,-0.6762621402740479,0.08044761419296265,0.004155999980866909,0.006127831060439348,0.1598224639892578,0,0,0
2038190339,d4:22:cd:00:30:92,0.7161700129508972,0.15267398953437805,-0.676261305809021,0.08045637607574463,0.009891342371702194,-0.007120675873011351,0.14687061309814453,0,0,0
2038207006,d4:22:cd:00:30:92,0.7161665558815002,0.15267710387706757,-0.6762634515762329,0.08046402037143707,0.004093863070011139,-0.008593849837779999,0.15863990783691406,0,0,0
2038223673,d4:22:cd:00:30:92,0.7161683440208435,0.1526896059513092,-0.6762577295303345,0.08047209680080414,0.012704029679298401,0.006924878340214491,0.15442943572998047,0,0,0
2038240340,d4:22:cd:00:30:92,0.7161669135093689,0.15270592272281647,-0.6762532591819763,0.08049097657203674,-0.0040625715628266335,0.009796572849154472,0.14755821228027344,0,0,0
2038257007,d4:22:cd:00:30:92,0.7161693572998047,0.15269693732261658,-0.6762522459030151,0.08049607276916504,-0.010635193437337875,0.004887334071099758,0.15886306762695312,0,0,0
2038273674,d4:22:cd:00:30:92,0.7161674499511719,0.15268808603286743,-0.6762579083442688,0.08048184216022491,-0.008016068488359451,0.008043337613344193,0.1394634246826172,0,0,0
2038290341,d4:22:cd:00:30:92,0.7161619067192078,0.15268898010253906,-0.6762644648551941,0.08047471940517426,-0.0013629819732159376,-0.004290107637643814,0.15640926361083984,0,0,0
2038307008,d4:22:cd:00:30:92,0.7161610126495361,0.1526922732591629,-0.6762652397155762,0.08046962320804596,0.011611944995820522,-0.0004559664230328053,0.1518230438232422,0,0,0
2038323675,d4:22:cd:00:30:92,0.7161608934402466,0.1526976078748703,-0.6762646436691284,0.08046586811542511,0.0052293092012405396,0.003790109185501933,0.1558818817138672,0,0,0
2038340342,d4:22:cd:00:30:92,0.7161626219749451,0.15269358456134796,-0.6762632131576538,0.08046956360340118,-0.015114840120077133,-0.01145794428884983,0.1521778106689453,0,0,0
2038357009,d4:22:cd:00:30:92,0.7161617279052734,0.15270456671714783,-0.6762598156929016,0.08048547804355621,-0.003230209229514003,0.00454088905826211,0.166748046875,0,0,0
2038373676,d4:22:cd:00:30:92,0.7161626219749451,0.15270105004310608,-0.6762599945068359,0.0804830938577652,-0.013635184615850449,0.003872809000313282,0.14644241333007812,0,0,0
2038390343,d4:22:cd:00:30:92,0.7161650061607361,0.1527142971754074,-0.6762549877166748,0.08047802746295929,0.01069688331335783,0.0057871975004673,0.14864730834960938,0,0,0
2038407010,d4:22:cd:00:30:92,0.716168999671936,0.15272358059883118,-0.6762508153915405,0.0804610401391983,0.021782679483294487,-0.0014543988509103656,0.15548419952392578,0,0,0
2038423677,d4:22:cd:00:30:92,0.7161694765090942,0.1527036726474762,-0.6762565970420837,0.08044558763504028,0.004207408055663109,-0.004215007182210684,0.14409446716308594,0,0,0
2038440344,d4:22:cd:00:30:92,0.7161697745323181,0.1527082622051239,-0.6762546300888062,0.0804496556520462,0.012353113852441311,0.001744518638588488,0.14735984802246094,0,0,0
2038457011,d4:22:cd:00:30:92,0.7161728739738464,0.1527102291584015,-0.6762505173683167,0.08045345544815063,-0.0012901168083772063,0.00010974486212944612,0.1531524658203125,0,0,0
2038473678,d4:22:cd:00:30:92,0.7161722183227539,0.15271438658237457,-0.6762484312057495,0.08046934008598328,-0.018131371587514877,-0.00633838027715683,0.14078807830810547,0,0,0
2038490345,d4:22:cd:00:30:92,0.7161726951599121,0.15272954106330872,-0.6762455105781555,0.08046102523803711,-0.004206513985991478,-0.0030516223050653934,0.14953231811523438,0,0,0
2038507012,d4:22:cd:00:30:92,0.7161809206008911,0.15272238850593567,-0.676237940788269,0.08046533167362213,0.009370109997689724,-0.00159051816444844,0.14976882934570312,0,0,0
2038523679,d4:22:cd:00:30:92,0.7161729335784912,0.15272483229637146,-0.6762447953224182,0.08047376573085785,-0.000018775088392430916,-0.0035634669475257397,0.1598672866821289,0,0,0
2038540346,d4:22:cd:00:30:92,0.7161683440208435,0.1527310460805893,-0.6762473583221436,0.08048112690448761,-0.0028122400399297476,0.0007107711862772703,0.1477365493774414,0,0,0
2038557013,d4:22:cd:00:30:92,0.7161756753921509,0.15272821485996246,-0.6762413382530212,0.08047191798686981,0.000799282337538898,0.006718799471855164,0.1535177230834961,0,0,0
2038573680,d4:22:cd:00:30:92,0.7161755561828613,0.15273015201091766,-0.6762411594390869,0.08046942949295044,-0.005177007056772709,-0.0034470167011022568,0.14517784118652344,0,0,0
2038590347,d4:22:cd:00:30:92,0.7161770462989807,0.15273568034172058,-0.6762384176254272,0.08046914637088776,-0.006323628593236208,-0.002874376717954874,0.16523170471191406,0,0,0
2038607014,d4:22:cd:00:30:92,0.7161880135536194,0.15272405743598938,-0.6762303709983826,0.08046241104602814,-0.01037234254181385,0.007713655475527048,0.1524667739868164,0,0,0
2038623681,d4:22:cd:00:30:92,0.7161888480186462,0.15272599458694458,-0.6762304306030273,0.08045130968093872,-0.0035762072075158358,0.006145488936454058,0.14922714233398438,0,0,0
2038640348,d4:22:cd:00:30:92,0.716191291809082,0.15271377563476562,-0.676231324672699,0.08044418692588806,0.015684351325035095,-0.0036515311803668737,0.17001724243164062,0,0,0
2038657015,d4:22:cd:00:30:92,0.7161917090415955,0.1527124047279358,-0.6762313842773438,0.08044275641441345,0.011290086433291435,-0.0011385750258341432,0.152313232421875,0,0,0
2038673682,d4:22:cd:00:30:92,0.7161926627159119,0.15272222459316254,-0.6762259602546692,0.0804605484008789,-0.0010067023104056716,0.0008873464539647102,0.15342426300048828,0,0,0
2038690349,d4:22:cd:00:30:92,0.7162012457847595,0.1527291089296341,-0.676214873790741,0.08046412467956543,-0.010709846392273903,0.00011890889436472207,0.15688133239746094,0,0,0
2038707016,d4:22:cd:00:30:92,0.7162063717842102,0.1527378112077713,-0.6762044429779053,0.08048957586288452,0.00010862729686778039,0.004760155454277992,0.15662765502929688,0,0,0
2038723683,d4:22:cd:00:30:92,0.7162059545516968,0.15273229777812958,-0.6762055158615112,0.08049659430980682,-0.007086701691150665,0.006770431064069271,0.12727642059326172,0,0,0
2038740350,d4:22:cd:00:30:92,0.7162008881568909,0.15276004374027252,-0.676203727722168,0.08050419390201569,-0.001125164213590324,-0.003135439706966281,0.13988685607910156,0,0,0
2038757017,d4:22:cd:00:30:92,0.716198742389679,0.15275707840919495,-0.6762075424194336,0.08049574494361877,0.008452366106212139,-0.0029606525786221027,0.1489124298095703,0,0,0
2038773684,d4:22:cd:00:30:92,0.716200053691864,0.15275302529335022,-0.6762063503265381,0.08050131797790527,0.0044751763343811035,0.008573509752750397,0.15459060668945312,0,0,0
2038790351,d4:22:cd:00:30:92,0.716201901435852,0.1527499109506607,-0.6762049794197083,0.08050261437892914,-0.0007496624602936208,0.0006517637521028519,0.1533966064453125,0,0,0
2038807018,d4:22:cd:00:30:92,0.7162066102027893,0.15272866189479828,-0.6762062311172485,0.08048994839191437,0.012667819857597351,0.0015082653844729066,0.15013790130615234,0,0,0
2038823685,d4:22:cd:00:30:92,0.7162095904350281,0.1527230143547058,-0.6762040257453918,0.08049336075782776,0.0014376352773979306,-0.004639234859496355,0.14871978759765625,0,0,0
2038840352,d4:22:cd:00:30:92,0.7162031531333923,0.1527196317911148,-0.6762109994888306,0.08049799501895905,0.001666065538302064,-0.004167622420936823,0.1535177230834961,0,0,0
2038857019,d4:22:cd:00:30:92,0.7162052392959595,0.1527196615934372,-0.6762079000473022,0.08050607144832611,0.006228412035852671,-0.011329871602356434,0.15212154388427734,0,0,0
2038873686,d4:22:cd:00:30:92,0.7162052392959595,0.15271112322807312,-0.6762095093727112,0.08050742745399475,0.007594970054924488,0.003603252349421382,0.15727519989013672,0,0,0
2038890353,d4:22:cd:00:30:92,0.716206431388855,0.15272030234336853,-0.6762058734893799,0.0805099606513977,0.004257474560290575,0.012781811878085136,0.15105438232421875,0,0,0
2038907020,d4:22:cd:00:30:92,0.7162124514579773,0.1527218520641327,-0.6761987209320068,0.0805140882730484,0.003504683030769229,0.0011884183622896671,0.16211318969726562,0,0,0
2038923687,d4:22:cd:00:30:92,0.7162110805511475,0.15272046625614166,-0.6762014627456665,0.08050583302974701,0.006536860018968582,-0.0030621273908764124,0.14581775665283203,0,0,0
2038940354,d4:22:cd:00:30:92,0.7162060141563416,0.15271389484405518,-0.6762092113494873,0.08049826323986053,-0.013721907511353493,0.005709414836019278,0.16576862335205078,0,0,0
2038957021,d4:22:cd:00:30:92,0.7162079215049744,0.15272095799446106,-0.6762053370475769,0.08050139248371124,0.00811709649860859,-0.00031783542362973094,0.14039134979248047,0,0,0
2038973688,d4:22:cd:00:30:92,0.7162153124809265,0.1527123898267746,-0.6762014627456665,0.08048413693904877,0.0000764414289733395,0.0051642670296132565,0.13944435119628906,0,0,0
2038990355,d4:22:cd:00:30:92,0.7162123918533325,0.15270425379276276,-0.6762059926986694,0.080487459897995,0.004599896725267172,0.006545353215187788,0.14352130889892578,0,0,0
2039007022,d4:22:cd:00:30:92,0.7162152528762817,0.15270031988620758,-0.676202654838562,0.0804981142282486,0.005194887984544039,0.0015509563963860273,0.1558847427368164,0,0,0
2039023689,d4:22:cd:00:30:92,0.7162102460861206,0.1527043879032135,-0.676206648349762,0.08050131797790527,0.004527031444013119,0.004820056725293398,0.13214492797851562,0,0,0
2039040356,d4:22:cd:00:30:92,0.7162095308303833,0.15271487832069397,-0.6762020587921143,0.08052685856819153,0.00937055703252554,-0.002006922848522663,0.1559162139892578,0,0,0
2039057023,d4:22:cd:00:30:92,0.7162010669708252,0.15272195637226105,-0.6762091517448425,0.08052755892276764,-0.0009061215096153319,-0.002705177292227745,0.15155601501464844,0,0,0
2039073690,d4:22:cd:00:30:92,0.7161940932273865,0.15270110964775085,-0.6762224435806274,0.08051671087741852,-0.0065954201854765415,0.011936262249946594,0.14132022857666016,0,0,0
2039090357,d4:22:cd:00:30:92,0.7161857485771179,0.15271402895450592,-0.6762282252311707,0.08051823079586029,0.004900745116174221,0.012771530076861382,0.1657428741455078,0,0,0
2039107024,d4:22:cd:00:30:92,0.7161841988563538,0.15272225439548492,-0.6762279272079468,0.08051952719688416,0.008765731006860733,-0.0012176985619589686,0.140899658203125,0,0,0
2039123691,d4:22:cd:00:30:92,0.716176450252533,0.15273308753967285,-0.6762325763702393,0.0805296003818512,-0.004080005455762148,-0.002488593338057399,0.14549636840820312,0,0,0
2039140358,d4:22:cd:00:30:92,0.716177761554718,0.15272727608680725,-0.6762319207191467,0.08053447306156158,0.009092059917747974,-0.010299253277480602,0.1643962860107422,0,0,0
2039157025,d4:22:cd:00:30:92,0.7161842584609985,0.15273983776569366,-0.6762213706970215,0.08054107427597046,-0.008157328702509403,-0.014255432412028313,0.13952922821044922,0,0,0
2039173692,d4:22:cd:00:30:92,0.7161810994148254,0.15273208916187286,-0.6762267351150513,0.08054015040397644,-0.006312899757176638,0.008739803917706013,0.1540384292602539,0,0,0
2039190359,d4:22:cd:00:30:92,0.7161771655082703,0.15273885428905487,-0.6762259602546692,0.08056801557540894,0.004291001707315445,-0.006008475087583065,0.1487255096435547,0,0,0
2039207026,d4:22:cd:00:30:92,0.7161707878112793,0.15276272594928741,-0.6762250065803528,0.08058752119541168,0.004321846645325422,0.002816486870869994,0.14714908599853516,0,0,0
2039223693,d4:22:cd:00:30:92,0.7161679267883301,0.15275728702545166,-0.6762292385101318,0.08058680593967438,0.013704920187592506,-0.0025370954535901546,0.15262603759765625,0,0,0
2039240360,d4:22:cd:00:30:92,0.7161697149276733,0.15275748074054718,-0.6762269139289856,0.0805896520614624,0.0042579215951263905,0.0034324885345995426,0.15404510498046875,0,0,0
2039257027,d4:22:cd:00:30:92,0.7161779403686523,0.15275919437408447,-0.6762183904647827,0.08058582246303558,-0.004013845697045326,0.0024937340058386326,0.14456462860107422,0,0,0
2039273694,d4:22:cd:00:30:92,0.7161867618560791,0.152751624584198,-0.6762104630470276,0.08058807253837585,0.0072199152782559395,0.020917683839797974,0.1655120849609375,0,0,0
2039290361,d4:22:cd:00:30:92,0.716184675693512,0.15274204313755035,-0.6762155294418335,0.08058133721351624,-0.020604318007826805,0.0034664624836295843,0.14081573486328125,0,0,0
2039307028,d4:22:cd:00:30:92,0.716194748878479,0.15273597836494446,-0.6762070655822754,0.08057449758052826,-0.0061555467545986176,0.007785403169691563,0.15394878387451172,0,0,0
2039323695,d4:22:cd:00:30:92,0.716200590133667,0.15273873507976532,-0.6762002110481262,0.08057469129562378,0.010569033212959766,0.010011368431150913,0.1590557098388672,0,0,0
2039340362,d4:22:cd:00:30:92,0.7161970138549805,0.15274213254451752,-0.6762034893035889,0.08057284355163574,0.008604355156421661,0.0013111269799992442,0.15245437622070312,0,0,0
2039357029,d4:22:cd:00:30:92,0.7162076830863953,0.15273459255695343,-0.6761937141418457,0.08057399094104767,0.0003379515837877989,0.0016917695757001638,0.14428043365478516,0,0,0
2039373696,d4:22:cd:00:30:92,0.7162021398544312,0.1527276635169983,-0.6762005686759949,0.08057978749275208,0.011964201927185059,0.008467340841889381,0.1586923599243164,0,0,0
2039390363,d4:22:cd:00:30:92,0.7161988019943237,0.15272819995880127,-0.6762022972106934,0.08059391379356384,-0.005421530455350876,0.0072876401245594025,0.13654232025146484,0,0,0
2039407030,d4:22:cd:00:30:92,0.7161993384361267,0.15273283421993256,-0.676200270652771,0.08059774339199066,-0.016302140429615974,0.0019119298085570335,0.15878772735595703,0,0,0
2039423697,d4:22:cd:00:30:92,0.7162013053894043,0.15272174775600433,-0.6762006282806396,0.0805981308221817,-0.0028971750289201736,0.0006805969751439989,0.1719036102294922,0,0,0
2039440364,d4:22:cd:00:30:92,0.7161950469017029,0.15271629393100739,-0.6762073636054993,0.08060736954212189,0.0016209159512072802,-0.0038260947912931442,0.13599586486816406,0,0,0
2039457031,d4:22:cd:00:30:92,0.7161908745765686,0.15271347761154175,-0.6762115955352783,0.08061401546001434,0.007480531465262175,0.014817791059613228,0.1583080291748047,0,0,0
2039473698,d4:22:cd:00:30:92,0.716189980506897,0.15272119641304016,-0.6762094497680664,0.08062566816806793,-0.003780498169362545,0.007012942340224981,0.14828968048095703,0,0,0
2039490365,d4:22:cd:00:30:92,0.7161915302276611,0.15270820260047913,-0.6762107014656067,0.08062563836574554,-0.006737574469298124,-0.000024139399101841263,0.1484518051147461,0,0,0
2039507032,d4:22:cd:00:30:92,0.7161852717399597,0.15270106494426727,-0.6762180924415588,0.08063258230686188,-0.007716561201959848,0.0010388882365077734,0.1650981903076172,0,0,0
2039523699,d4:22:cd:00:30:92,0.7161828279495239,0.1527010202407837,-0.6762210130691528,0.0806298702955246,0.014618194662034512,0.0072603714652359486,0.15727996826171875,0,0,0
2039540366,d4:22:cd:00:30:92,0.7161781191825867,0.1527063399553299,-0.6762257218360901,0.08062192797660828,0.00781848281621933,-0.002720376243814826,0.14077281951904297,0,0,0
2039557033,d4:22:cd:00:30:92,0.7161788940429688,0.15269209444522858,-0.6762281656265259,0.08062228560447693,-0.005122469738125801,0.008161128498613834,0.16556835174560547,0,0,0
2039573700,d4:22:cd:00:30:92,0.7161754965782166,0.15270107984542847,-0.6762292981147766,0.08062547445297241,-0.005218580365180969,-0.004250098951160908,0.14840412139892578,0,0,0
2039590367,d4:22:cd:00:30:92,0.7161729335784912,0.15270042419433594,-0.6762312650680542,0.08063280582427979,-0.004987468011677265,0.011724372394382954,0.1497507095336914,0,0,0
2039607034,d4:22:cd:00:30:92,0.7161645889282227,0.15270818769931793,-0.6762373447418213,0.08064274489879608,-0.0005498418468050659,0.017489666119217873,0.17117881774902344,0,0,0
2039623701,d4:22:cd:00:30:92,0.7161597609519958,0.15272438526153564,-0.6762393712997437,0.08063732087612152,0.00716135511174798,0.009591834619641304,0.13531875610351562,0,0,0
2039640368,d4:22:cd:00:30:92,0.7161579728126526,0.1527280956506729,-0.6762396693229675,0.08064272999763489,-0.018619969487190247,0.00022641861869487911,0.14722251892089844,0,0,0
2039657035,d4:22:cd:00:30:92,0.7161592841148376,0.15272893011569977,-0.6762374639511108,0.08064815402030945,-0.0000581133681407664,0.00008538195106666535,0.16920852661132812,0,0,0
2039673702,d4:22:cd:00:30:92,0.716167688369751,0.15273840725421906,-0.676226019859314,0.08065193891525269,-0.008112626150250435,0.0023667786736041307,0.1461505889892578,0,0,0
2039690369,d4:22:cd:00:30:92,0.7161663770675659,0.15274004638195038,-0.6762272715568542,0.08065026998519897,-0.003136333776637912,0.0036638244055211544,0.12819194793701172,0,0,0
2039707036,d4:22:cd:00:30:92,0.7161648273468018,0.15274299681186676,-0.6762275099754333,0.08065648376941681,-0.0043276576325297356,0.006046696100383997,0.16701793670654297,0,0,0
2039723703,d4:22:cd:00:30:92,0.7161639332771301,0.15275508165359497,-0.6762261986732483,0.08065187931060791,0.008265509270131588,-0.004960199352353811,0.11807918548583984,0,0,0
2039740370,d4:22:cd:00:30:92,0.7161706686019897,0.15275104343891144,-0.6762202382087708,0.08064961433410645,-0.004413039889186621,-0.0028853288386017084,0.1578960418701172,0,0,0
2039757037,d4:22:cd:00:30:92,0.7161649465560913,0.15275217592716217,-0.6762255430221558,0.08065474033355713,-0.007913252338767052,0.013609703630208969,0.16692638397216797,0,0,0
2039773704,d4:22:cd:00:30:92,0.7161746025085449,0.15273115038871765,-0.6762222051620483,0.08063660562038422,0.0007371457177214324,-0.015015153214335442,0.14437580108642578,0,0,0
2039790371,d4:22:cd:00:30:92,0.7161687612533569,0.15273839235305786,-0.6762254238128662,0.08064837753772736,-0.007738465443253517,-0.005921528674662113,0.1692800521850586,0,0,0
2039807038,d4:22:cd:00:30:92,0.7161692380905151,0.15273220837116241,-0.6762245297431946,0.08066290616989136,-0.02060074172914028,0.011968894861638546,0.17420005798339844,0,0,0
2039823705,d4:22:cd:00:30:92,0.7161768674850464,0.15273551642894745,-0.6762163639068604,0.08065678179264069,-0.01333165355026722,-0.0026222539599984884,0.15281009674072266,0,0,0
2039840372,d4:22:cd:00:30:92,0.7161674499511719,0.15274211764335632,-0.676223874092102,0.08066554367542267,0.026553338393568993,0.015427310951054096,0.15536785125732422,0,0,0
2039857039,d4:22:cd:00:30:92,0.7161454558372498,0.15276257693767548,-0.6762480735778809,0.08061835169792175,0.004547594580799341,0.006917725782841444,0.16702556610107422,0,0,0
2039873706,d4:22:cd:00:30:92,0.7161398530006409,0.15276525914669037,-0.6762542128562927,0.08061203360557556,-0.012918154709041119,-0.007363857701420784,0.13129520416259766,0,0,0
2039890373,d4:22:cd:00:30:92,0.7161444425582886,0.1527656763792038,-0.6762476563453674,0.08062539994716644,0.010492145083844662,0.0031767897307872772,0.15237712860107422,0,0,0
2039907040,d4:22:cd:00:30:92,0.7161356210708618,0.15276356041431427,-0.6762570142745972,0.08062998950481415,-0.00871074665337801,-0.001370581449009478,0.15334320068359375,0,0,0
2039923707,d4:22:cd:00:30:92,0.7161380052566528,0.15275488793849945,-0.6762559413909912,0.08063338696956635,-0.008839490823447704,0.0027771485038101673,0.1365652084350586,0,0,0
2039940374,d4:22:cd:00:30:92,0.7161375880241394,0.15276247262954712,-0.676253080368042,0.08064612746238708,-0.0007353576365858316,-0.013827405869960785,0.157501220703125,0,0,0
2039957041,d4:22:cd:00:30:92,0.7161397337913513,0.15275558829307556,-0.6762534379959106,0.08063723146915436,0.011699561960995197,-0.0036526487674564123,0.1546764373779297,0,0,0
2039973708,d4:22:cd:00:30:92,0.7161362171173096,0.1527635008096695,-0.6762551069259644,0.08063986897468567,-0.001202946761623025,0.001961326226592064,0.14136981964111328,0,0,0
2039990375,d4:22:cd:00:30:92,0.7161356210708618,0.15276415646076202,-0.6762561202049255,0.080635666847229,0.017264140769839287,0.00043853241368196905,0.15149593353271484,0,0,0
2040007042,d4:22:cd:00:30:92,0.7161399126052856,0.15275995433330536,-0.6762526631355286,0.08063551783561707,-0.012648598290979862,0.0009302609250880778,0.15511322021484375,0,0,0
2040023709,d4:22:cd:00:30:92,0.7161417007446289,0.15275508165359497,-0.6762518882751465,0.08063408732414246,-0.01060390193015337,-0.01313049253076315,0.16296672821044922,0,0,0
2040040376,d4:22:cd:00:30:92,0.7161427736282349,0.15276899933815002,-0.6762475967407227,0.08063477277755737,-0.0044014169834554195,0.006357378792017698,0.1635274887084961,0,0,0
2040057043,d4:22:cd:00:30:92,0.7161428332328796,0.1527724266052246,-0.6762465834617615,0.08063647150993347,-0.0045922971330583096,0.0030377646908164024,0.1508035659790039,0,0,0
2040073710,d4:22:cd:00:30:92,0.7161369919776917,0.15276853740215302,-0.6762522459030151,0.08064761757850647,-0.010810427367687225,-0.007294792216271162,0.1605386734008789,0,0,0
2040090377,d4:22:cd:00:30:92,0.7161338329315186,0.15276457369327545,-0.6762560606002808,0.08065161108970642,-0.0014868081780150533,-0.0069306897930800915,0.15654373168945312,0,0,0
2040107044,d4:22:cd:00:30:92,0.7161329388618469,0.15277425944805145,-0.6762542128562927,0.08065636456012726,-0.012225264683365822,-0.01942707598209381,0.14423274993896484,0,0,0
2040123711,d4:22:cd:00:30:92,0.716131329536438,0.15277822315692902,-0.6762548089027405,0.08065906167030334,0.00553105166181922,0.009578648023307323,0.1617288589477539,0,0,0
2040140378,d4:22:cd:00:30:92,0.7161345481872559,0.15277773141860962,-0.6762509346008301,0.08066299557685852,-0.009486337192356586,0.004578886553645134,0.16092777252197266,0,0,0
2040157045,d4:22:cd:00:30:92,0.7161303758621216,0.15276972949504852,-0.676257312297821,0.08066187798976898,-0.0026463933754712343,0.013513369485735893,0.1524791717529297,0,0,0
2040173712,d4:22:cd:00:30:92,0.7161341309547424,0.1527767777442932,-0.6762524247169495,0.08065655827522278,0.012353113852441311,0.004010939970612526,0.15170860290527344,0,0,0
2040190379,d4:22:cd:00:30:92,0.7161285877227783,0.15277795493602753,-0.6762573719024658,0.08066177368164062,0.003852022346109152,0.0033900209236890078,0.146331787109375,0,0,0
2040207046,d4:22:cd:00:30:92,0.7161322832107544,0.1527777463197708,-0.676254153251648,0.08065533638000488,0.0003817601245827973,-0.0006861847941763699,0.13491249084472656,0,0,0
2040223713,d4:22:cd:00:30:92,0.7161293625831604,0.1527673900127411,-0.6762601733207703,0.0806511789560318,-0.0014188602799549699,0.0016805939376354218,0.15659141540527344,0,0,0
2040240380,d4:22:cd:00:30:92,0.7161324620246887,0.15276262164115906,-0.676258385181427,0.08064769208431244,0.005947232712060213,-0.010336579754948616,0.14853572845458984,0,0,0
2040257047,d4:22:cd:00:30:92,0.7161200046539307,0.15277133882045746,-0.676268458366394,0.08065679669380188,0.004305306356400251,0.0035185408778488636,0.1543598175048828,0,0,0
2040273714,d4:22:cd:00:30:92,0.7161273956298828,0.15276996791362762,-0.6762598156929016,0.08066627383232117,-0.0021408069878816605,0.003809554735198617,0.15814685821533203,0,0,0
2040290381,d4:22:cd:00:30:92,0.7161286473274231,0.1527647078037262,-0.6762597560882568,0.08066515624523163,0.0014331650454550982,-0.0011995940003544092,0.1469717025756836,0,0,0
2040307048,d4:22:cd:00:30:92,0.7161344885826111,0.1527608186006546,-0.6762542128562927,0.08066773414611816,-0.0018301240634173155,-0.005680358037352562,0.1508016586303711,0,0,0
2040323715,d4:22:cd:00:30:92,0.716133713722229,0.15276074409484863,-0.6762547492980957,0.08067083358764648,-0.0026030319277197123,-0.004355373326689005,0.14943408966064453,0,0,0
2040340382,d4:22:cd:00:30:92,0.7161349058151245,0.15275929868221283,-0.6762531995773315,0.08067512512207031,-0.003411254845559597,0.008761484175920486,0.15901851654052734,0,0,0
2040357049,d4:22:cd:00:30:92,0.7161290645599365,0.1527550220489502,-0.6762609481811523,0.08067114651203156,-0.003874373622238636,-0.001275141374208033,0.15202713012695312,0,0,0
2040373716,d4:22:cd:00:30:92,0.7161262631416321,0.1527578979730606,-0.6762629747390747,0.0806729644536972,-0.0048399497754871845,0.012255215086042881,0.15593433380126953,0,0,0
2040390383,d4:22:cd:00:30:92,0.7161299586296082,0.15277566015720367,-0.6762538552284241,0.08068349957466125,-0.00022261890990193933,-0.0040688300505280495,0.15714263916015625,0,0,0
2040407050,d4:22:cd:00:30:92,0.7161357402801514,0.15275956690311432,-0.6762524843215942,0.08067332208156586,-0.007638779003173113,0.009591611102223396,0.15129566192626953,0,0,0
2040423717,d4:22:cd:00:30:92,0.7161378264427185,0.1527641862630844,-0.6762493848800659,0.08067238330841064,-0.0034143838565796614,-0.003902536118403077,0.15443897247314453,0,0,0
2040440384,d4:22:cd:00:30:92,0.7161316275596619,0.15277037024497986,-0.6762534976005554,0.08068130910396576,-0.0018162663327530026,-0.004273120779544115,0.16527271270751953,0,0,0
2040457051,d4:22:cd:00:30:92,0.7161316871643066,0.15277619659900665,-0.6762527227401733,0.08067630231380463,-0.009945879690349102,0.005487243179231882,0.15158653259277344,0,0,0
2040473718,d4:22:cd:00:30:92,0.7161298990249634,0.15278880298137665,-0.6762503385543823,0.0806882232427597,-0.001532851834781468,0.002361638005822897,0.1604776382446289,0,0,0
2040490385,d4:22:cd:00:30:92,0.7161312699317932,0.15278896689414978,-0.6762483716011047,0.08069230616092682,-0.005842628888785839,-0.007012271787971258,0.1442089080810547,0,0,0
2040507052,d4:22:cd:00:30:92,0.716123640537262,0.15279792249202728,-0.6762546300888062,0.08069117367267609,0.006924878340214491,0.009514722973108292,0.14783859252929688,0,0,0
2040523719,d4:22:cd:00:30:92,0.7161192297935486,0.1527998000383377,-0.6762582063674927,0.08069643378257751,0.0007997293723747134,-0.005400519818067551,0.15841007232666016,0,0,0
2040540386,d4:22:cd:00:30:92,0.7161208391189575,0.15279558300971985,-0.6762582063674927,0.08068965375423431,-0.0064139277674257755,0.010930007323622704,0.14598655700683594,0,0,0
2040557053,d4:22:cd:00:30:92,0.7161279320716858,0.15278466045856476,-0.6762530207633972,0.08069078624248505,-0.007201140280812979,-0.004609954543411732,0.138580322265625,0,0,0
2040573720,d4:22:cd:00:30:92,0.7161180377006531,0.1527828425168991,-0.6762629151344299,0.08069956302642822,0.014323157258331776,-0.008600778877735138,0.15639495849609375,0,0,0
2040590387,d4:22:cd:00:30:92,0.7161176204681396,0.15277786552906036,-0.6762639880180359,0.08070246875286102,0.0007827423978596926,-0.007057421375066042,0.15017414093017578,0,0,0
2040607054,d4:22:cd:00:30:92,0.7161204218864441,0.15278057754039764,-0.6762614250183105,0.08069433271884918,-0.012902955524623394,0.004939412698149681,0.16380977630615234,0,0,0
2040623721,d4:22:cd:00:30:92,0.7161162495613098,0.15277442336082458,-0.6762682199478149,0.08068643510341644,0.0015256993938237429,-0.005066815298050642,0.16195106506347656,0,0,0
2040640388,d4:22:cd:00:30:92,0.7161134481430054,0.15276333689689636,-0.676273763179779,0.08068585395812988,0.006556082051247358,0.005140574648976326,0.1502847671508789,0,0,0
2040657055,d4:22:cd:00:30:92,0.7161139249801636,0.1527547538280487,-0.6762749552726746,0.08068887889385223,0.007519870065152645,-0.0030160837341099977,0.13821887969970703,0,0,0
2040673722,d4:22:cd:00:30:92,0.7161142826080322,0.15275901556015015,-0.676273763179779,0.08068566024303436,-0.008871229365468025,0.00316024967469275,0.15950584411621094,0,0,0
2040690389,d4:22:cd:00:30:92,0.7161130309104919,0.15275757014751434,-0.6762751340866089,0.08068954944610596,-0.0015480507863685489,0.00017545766604598612,0.15609264373779297,0,0,0
2040707056,d4:22:cd:00:30:92,0.7161102890968323,0.15276369452476501,-0.6762760877609253,0.08069451153278351,-0.020052241161465645,0.0034785321913659573,0.15302467346191406,0,0,0
2040723723,d4:22:cd:00:30:92,0.7161079049110413,0.15276238322257996,-0.6762793660163879,0.08069044351577759,0.002900304039940238,-0.00517007801681757,0.1648693084716797,0,0,0
2040740390,d4:22:cd:00:30:92,0.7161083817481995,0.15275268256664276,-0.6762809157371521,0.08069050312042236,0.0073464238084852695,0.009777573868632317,0.15864944458007812,0,0,0
2040757057,d4:22:cd:00:30:92,0.7161092162132263,0.1527549773454666,-0.6762791872024536,0.08069370687007904,-0.005341512616723776,0.001283187884837389,0.15397262573242188,0,0,0
2040773724,d4:22:cd:00:30:92,0.716108500957489,0.15276898443698883,-0.676275372505188,0.08070582151412964,-0.005480090621858835,-0.0012885521864518523,0.16696834564208984,0,0,0
2040790391,d4:22:cd:00:30:92,0.7161024808883667,0.1527823954820633,-0.6762773394584656,0.08071672916412354,-0.001865886151790619,0.007466673851013184,0.1540985107421875,0,0,0
2040807058,d4:22:cd:00:30:92,0.7161104083061218,0.15278127789497375,-0.6762689352035522,0.08071887493133545,-0.012468446977436543,-0.004344644956290722,0.15871429443359375,0,0,0
2040823725,d4:22:cd:00:30:92,0.7161089777946472,0.15277887880802155,-0.676271378993988,0.08071586489677429,-0.02103346399962902,0.018453676253557205,0.16359424591064453,0,0,0
2040840392,d4:22:cd:00:30:92,0.7161188125610352,0.15278378129005432,-0.6762588620185852,0.08072534203529358,-0.002363425912335515,0.009747846983373165,0.14503002166748047,0,0,0
2040857059,d4:22:cd:00:30:92,0.7161219120025635,0.15277282893657684,-0.676258385181427,0.08072115480899811,0.009834122844040394,-0.0007521210936829448,0.15763092041015625,0,0,0
2040873726,d4:22:cd:00:30:92,0.7161251902580261,0.15275220572948456,-0.6762590408325195,0.08072593808174133,0.0003777368983719498,-0.00029906033887527883,0.1559162139892578,0,0,0
2040890393,d4:22:cd:00:30:92,0.7161216139793396,0.1527538150548935,-0.6762632131576538,0.08071964979171753,-0.004717017523944378,0.006438290700316429,0.12972068786621094,0,0,0
2040907060,d4:22:cd:00:30:92,0.7161183953285217,0.1527543067932129,-0.6762661337852478,0.08072294294834137,-0.008213654160499573,-0.0023725901264697313,0.15177440643310547,0,0,0
2040923727,d4:22:cd:00:30:92,0.7161138653755188,0.15275108814239502,-0.6762731671333313,0.08071006834506989,-0.004995961673557758,0.0038153661880642176,0.15602874755859375,0,0,0
2040940394,d4:22:cd:00:30:92,0.7161110639572144,0.15274405479431152,-0.6762760877609253,0.0807228684425354,-0.01577777974307537,0.028265224769711494,0.16144084930419922,0,0,0
2040957061,d4:22:cd:00:30:92,0.7161110043525696,0.1527480036020279,-0.6762740015983582,0.08073478937149048,-0.006096986588090658,-0.003660248126834631,0.14351177215576172,0,0,0
2040973728,d4:22:cd:00:30:92,0.7161153554916382,0.15275323390960693,-0.6762683987617493,0.08073388040065765,0.013305279426276684,-0.009496171027421951,0.14986038208007812,0,0,0
2040990395,d4:22:cd:00:30:92,0.7161175012588501,0.1527523547410965,-0.6762663722038269,0.08073312044143677,-0.00009253436292055994,-0.0014680330641567707,0.14525508880615234,0,0,0
2041007062,d4:22:cd:00:30:92,0.7161203622817993,0.1527538299560547,-0.6762635111808777,0.0807281881570816,-0.00625612773001194,0.005239367019385099,0.15155696868896484,0,0,0
2041023729,d4:22:cd:00:30:92,0.7161204814910889,0.1527663767337799,-0.6762599349021912,0.08073332905769348,0.002779607195407152,0.0008696889271959662,0.14194869995117188,0,0,0
2041040396,d4:22:cd:00:30:92,0.7161226272583008,0.152767151594162,-0.6762584447860718,0.08072462677955627,-0.0076660471968352795,0.002269550459459424,0.15495872497558594,0,0,0
2041057063,d4:22:cd:00:30:92,0.7161234617233276,0.15276634693145752,-0.6762564182281494,0.08073647320270538,-0.001336160465143621,0.002262174617499113,0.15141677856445312,0,0,0
2041073730,d4:22:cd:00:30:92,0.7161180973052979,0.1527596414089203,-0.6762648820877075,0.08072596788406372,-0.00100312614813447,0.0027062948793172836,0.1533031463623047,0,0,0
2041090397,d4:22:cd:00:30:92,0.7161270976066589,0.1527492254972458,-0.6762582063674927,0.08072128891944885,-0.006546694319695234,0.0061027975752949715,0.14527320861816406,0,0,0
2041107064,d4:22:cd:00:30:92,0.7161207795143127,0.15275247395038605,-0.6762648820877075,0.08071592450141907,0.0070352936163544655,0.00623534107580781,0.15461063385009766,0,0,0
2041123731,d4:22:cd:00:30:92,0.7161131501197815,0.15275195240974426,-0.6762723922729492,0.08072163164615631,-0.006341509521007538,0.0022588218562304974,0.14467620849609375,0,0,0
2041140398,d4:22:cd:00:30:92,0.7161113023757935,0.1527518332004547,-0.6762749552726746,0.08071660995483398,-0.008521207608282566,0.006055859848856926,0.14810466766357422,0,0,0
2041157065,d4:22:cd:00:30:92,0.7161123156547546,0.15274618566036224,-0.6762747168540955,0.08072032034397125,-0.019745133817195892,-0.0036155455745756626,0.1494302749633789,0,0,0
2041173732,d4:22:cd:00:30:92,0.716108500957489,0.15274451673030853,-0.6762792468070984,0.08071880042552948,0.006820721551775932,0.0016665125731378794,0.1393413543701172,0,0,0
2041190399,d4:22:cd:00:30:92,0.7161167860031128,0.15274886786937714,-0.6762708425521851,0.0807071328163147,-0.004611519165337086,-0.009579318575561047,0.15968990325927734,0,0,0
2041207066,d4:22:cd:00:30:92,0.7161219716072083,0.15274402499198914,-0.6762658953666687,0.08071182668209076,0.014149711467325687,-0.00032521135290153325,0.16514968872070312,0,0,0
2041223733,d4:22:cd:00:30:92,0.7161176800727844,0.1527324616909027,-0.676272988319397,0.08071205019950867,0.006720587611198425,-0.0026694152038544416,0.14706897735595703,0,0,0
2041240400,d4:22:cd:00:30:92,0.7161148190498352,0.15272743999958038,-0.6762771606445312,0.08071260154247284,-0.003173884004354477,0.00518371257930994,0.1489238739013672,0,0,0
2041257067,d4:22:cd:00:30:92,0.7161202430725098,0.15274283289909363,-0.6762675046920776,0.0807160884141922,-0.009769304655492306,0.005180359818041325,0.15648841857910156,0,0,0
2041273734,d4:22:cd:00:30:92,0.716113805770874,0.15275023877620697,-0.6762728691101074,0.08071377873420715,-0.00243807933293283,-0.006622018292546272,0.1494913101196289,0,0,0
2041290401,d4:22:cd:00:30:92,0.7161169052124023,0.15275470912456512,-0.6762691140174866,0.08071132004261017,-0.0037639581132680178,-0.0006133195711299777,0.153900146484375,0,0,0
2041307068,d4:22:cd:00:30:92,0.7161149382591248,0.15277084708213806,-0.6762672662734985,0.08071328699588776,0.0014921724796295166,-0.00013254318037070334,0.1506977081298828,0,0,0
2041323735,d4:22:cd:00:30:92,0.7161169648170471,0.15277594327926636,-0.6762633323669434,0.08071886003017426,-0.005266859196126461,-0.008202701807022095,0.15267467498779297,0,0,0
2041340402,d4:22:cd:00:30:92,0.7161134481430054,0.15278178453445435,-0.6762624979019165,0.08074483275413513,-0.005348665174096823,-0.0005384426913224161,0.1587066650390625,0,0,0
2041357069,d4:22:cd:00:30:92,0.7161130905151367,0.15277966856956482,-0.6762629151344299,0.0807490199804306,-0.011273546144366264,-0.006947900168597698,0.1616363525390625,0,0,0
2041373736,d4:22:cd:00:30:92,0.7161144018173218,0.1527848243713379,-0.6762584447860718,0.0807647854089737,-0.0035283754114061594,0.0053426302038133144,0.15729904174804688,0,0,0
2041390403,d4:22:cd:00:30:92,0.7161185145378113,0.15278185904026031,-0.676254153251648,0.08077093958854675,-0.006713435053825378,0.004535301588475704,0.15180015563964844,0,0,0
2041407070,d4:22:cd:00:30:92,0.716122031211853,0.15278933942317963,-0.6762493848800659,0.08076579868793488,-0.004039326217025518,0.015363833867013454,0.16856098175048828,0,0,0
2041423737,d4:22:cd:00:30:92,0.7161234617233276,0.15279223024845123,-0.6762484908103943,0.08075471222400665,-0.00718996487557888,-0.004123590420931578,0.14922046661376953,0,0,0
2041440404,d4:22:cd:00:30:92,0.7161180377006531,0.15279777348041534,-0.6762533187866211,0.08075147867202759,-0.004850231111049652,0.0005426894640550017,0.15138626098632812,0,0,0
2041457071,d4:22:cd:00:30:92,0.7161148190498352,0.15279056131839752,-0.6762593984603882,0.08074317872524261,-0.005628503393381834,-0.006647051777690649,0.16899394989013672,0,0,0
2041473738,d4:22:cd:00:30:92,0.7161217331886292,0.15278246998786926,-0.6762551069259644,0.08073312044143677,-0.010550705716013908,-0.005227074027061462,0.14834308624267578,0,0,0
2041490405,d4:22:cd:00:30:92,0.716126561164856,0.1527770310640335,-0.6762513518333435,0.08073115348815918,-0.0021519826259464025,-0.0074293469078838825,0.14801597595214844,0,0,0
2041507072,d4:22:cd:00:30:92,0.7161238193511963,0.15279242396354675,-0.6762521266937256,0.08072055876255035,-0.011973588727414608,-0.0017970441840589046,0.15023517608642578,0,0,0
2041523739,d4:22:cd:00:30:92,0.7161309719085693,0.15280181169509888,-0.6762441396713257,0.08070594072341919,0.0010196660878136754,-0.010167380794882774,0.1530618667602539,0,0,0
2041540406,d4:22:cd:00:30:92,0.7161303162574768,0.15281663835048676,-0.6762407422065735,0.08071281015872955,0.0059888060204684734,-0.005221262574195862,0.15540599822998047,0,0,0
2041557073,d4:22:cd:00:30:92,0.7161288261413574,0.15281471610069275,-0.6762423515319824,0.08071492612361908,-0.012897592037916183,0.01551403384655714,0.15735912322998047,0,0,0
2041573740,d4:22:cd:00:30:92,0.716127872467041,0.15282092988491058,-0.6762419939041138,0.08071503043174744,-0.003880184842273593,0.00811307318508625,0.1463623046875,0,0,0
2041590407,d4:22:cd:00:30:92,0.7161290049552917,0.15279947221279144,-0.6762474775314331,0.08069999516010284,-0.00846398901194334,0.005347100552171469,0.15247058868408203,0,0,0
2041607074,d4:22:cd:00:30:92,0.7161310315132141,0.15280745923519135,-0.6762434840202332,0.08070018887519836,-0.0020916343200951815,-0.010073952376842499,0.1479930877685547,0,0,0
2041623741,d4:22:cd:00:30:92,0.7161288857460022,0.1528126448392868,-0.6762441396713257,0.08070489764213562,0.006677226163446903,0.0037623934913426638,0.1509685516357422,0,0,0
2041640408,d4:22:cd:00:30:92,0.7161335945129395,0.15281236171722412,-0.6762382388114929,0.08071216940879822,-0.0067335511557757854,-0.004511609207838774,0.1573162078857422,0,0,0
2041657075,d4:22:cd:00:30:92,0.7161334156990051,0.15281592309474945,-0.6762380003929138,0.08070912957191467,0.012719674967229366,-0.015200221911072731,0.15413475036621094,0,0,0
2041673742,d4:22:cd:00:30:92,0.7161312699317932,0.1528146117925644,-0.6762390732765198,0.08072096109390259,0.005290998611599207,-0.004635882098227739,0.1438894271850586,0,0,0
2041690409,d4:22:cd:00:30:92,0.7161413431167603,0.15282244980335236,-0.6762250661849976,0.08073410391807556,-0.001194900250993669,0.0043256464414298534,0.1597003936767578,0,0,0
2041707076,d4:22:cd:00:30:92,0.7161381840705872,0.15282049775123596,-0.6762290000915527,0.08073343336582184,0.0008636540733277798,-0.003309556283056736,0.15154647827148438,0,0,0
2041723743,d4:22:cd:00:30:92,0.7161391973495483,0.15281473100185394,-0.6762291789054871,0.08073347806930542,0.000991950510069728,0.004843972623348236,0.1531515121459961,0,0,0
2041740410,d4:22:cd:00:30:92,0.716144323348999,0.15281519293785095,-0.6762242913246155,0.08072753250598907,-0.0003276699862908572,0.014913901686668396,0.15594768524169922,0,0,0
2041757077,d4:22:cd:00:30:92,0.7161495685577393,0.15281836688518524,-0.6762168407440186,0.08073832094669342,-0.0010044672526419163,-0.020184338092803955,0.15676021575927734,0,0,0
2041773744,d4:22:cd:00:30:92,0.7161523103713989,0.15280777215957642,-0.6762166619300842,0.08073641359806061,-0.002022792352363467,0.0015786719741299748,0.15444469451904297,0,0,0
2041790411,d4:22:cd:00:30:92,0.7161554098129272,0.15282629430294037,-0.6762101054191589,0.08072951436042786,-0.007378609851002693,0.006571057252585888,0.15564441680908203,0,0,0
2041807078,d4:22:cd:00:30:92,0.7161609530448914,0.15282976627349854,-0.6762021780014038,0.08073858916759491,-0.009937386028468609,-0.003993953112512827,0.1582050323486328,0,0,0
2041823745,d4:22:cd:00:30:92,0.7161679863929749,0.15282823145389557,-0.6761943697929382,0.08074459433555603,-0.01408042199909687,-0.0007389338570646942,0.14844703674316406,0,0,0
2041840412,d4:22:cd:00:30:92,0.7161706686019897,0.1528315544128418,-0.6761915683746338,0.08073890209197998,-0.0027970410883426666,0.00547182047739625,0.16118240356445312,0,0,0
2041857079,d4:22:cd:00:30:92,0.7161328196525574,0.15284281969070435,-0.6762337684631348,0.08069920539855957,0.0024568543303757906,-0.008597426116466522,0.14873600006103516,0,0,0
2041873746,d4:22:cd:00:30:92,0.7161328196525574,0.15284200012683868,-0.6762346029281616,0.0806935727596283,0.005442540626972914,0.006016521714627743,0.16316604614257812,0,0,0
2041890413,d4:22:cd:00:30:92,0.7161368131637573,0.1528540849685669,-0.6762254238128662,0.08071170747280121,-0.006648616399616003,0.008455495350062847,0.16349411010742188,0,0,0
2041907080,d4:22:cd:00:30:92,0.7161449193954468,0.15284514427185059,-0.6762192249298096,0.08070974051952362,-0.004928907845169306,0.019772402942180634,0.14153099060058594,0,0,0
2041923747,d4:22:cd:00:30:92,0.716151773929596,0.1528264731168747,-0.6762155294418335,0.08071407675743103,-0.00652926042675972,0.004703382961452007,0.15693187713623047,0,0,0
2041940414,d4:22:cd:00:30:92,0.7161567807197571,0.1528138816356659,-0.6762139797210693,0.0807066261768341,0.005360287614166737,0.002108844695612788,0.14853286743164062,0,0,0
2041957081,d4:22:cd:00:30:92,0.7161506414413452,0.15280504524707794,-0.676222026348114,0.08071067929267883,0.0019843480549752712,0.002622700994834304,0.16666507720947266,0,0,0
2041973748,d4:22:cd:00:30:92,0.7161452770233154,0.15279972553253174,-0.6762283444404602,0.08071453869342804,0.00864324625581503,0.004233558662235737,0.14520835876464844,0,0,0
2041990415,d4:22:cd:00:30:92,0.7161498665809631,0.15279096364974976,-0.6762261986732483,0.08070909976959229,-0.001183724612928927,-0.007121346425265074,0.15535449981689453,0,0,0
2042007082,d4:22:cd:00:30:92,0.7161486744880676,0.15279357135295868,-0.6762264966964722,0.08071227371692657,-0.016559628769755363,0.0012311093742027879,0.15407276153564453,0,0,0
2042023749,d4:22:cd:00:30:92,0.7161433696746826,0.1527923345565796,-0.6762313842773438,0.0807199776172638,-0.013870767317712307,-0.0002664274361450225,0.15694904327392578,0,0,0
2042040416,d4:22:cd:00:30:92,0.7161521911621094,0.15279150009155273,-0.6762233376502991,0.08071155846118927,-0.013754540123045444,0.001069733058102429,0.14031124114990234,0,0,0
2042057083,d4:22:cd:00:30:92,0.716148853302002,0.15279164910316467,-0.6762270331382751,0.08071021735668182,-0.003633873537182808,0.00826238002628088,0.15676307678222656,0,0,0
2042073750,d4:22:cd:00:30:92,0.7161504626274109,0.15279528498649597,-0.676225483417511,0.08070197701454163,0.01188328955322504,0.010548917576670647,0.16409683227539062,0,0,0
2042090417,d4:22:cd:00:30:92,0.7161470651626587,0.15279115736484528,-0.6762303113937378,0.08070017397403717,-0.019259218126535416,-0.0037514413706958294,0.14484500885009766,0,0,0
2042107084,d4:22:cd:00:30:92,0.7161477208137512,0.1527881771326065,-0.6762301921844482,0.08070032298564911,0.007666494231671095,0.0036743294913321733,0.1641521453857422,0,0,0
2042123751,d4:22:cd:00:30:92,0.7161461710929871,0.15278983116149902,-0.676231861114502,0.0806986391544342,0.010731751099228859,0.005682816728949547,0.1483755111694336,0,0,0
2042140418,d4:22:cd:00:30:92,0.7161459922790527,0.15279561281204224,-0.6762320399284363,0.08068564534187317,0.008988349698483944,0.008572839200496674,0.1563892364501953,0,0,0
2042157085,d4:22:cd:00:30:92,0.7161445617675781,0.1527889370918274,-0.6762356758117676,0.08068077266216278,-0.0017170265782624483,0.0029789807740598917,0.16195964813232422,0,0,0
2042173752,d4:22:cd:00:30:92,0.716143786907196,0.15277941524982452,-0.676237940788269,0.08068728446960449,-0.0076754349283874035,-0.005407895892858505,0.15613174438476562,0,0,0
2042190419,d4:22:cd:00:30:92,0.7161386013031006,0.15277624130249023,-0.6762452721595764,0.08067803084850311,-0.003659354057163,0.0006092963158152997,0.14571666717529297,0,0,0
2042207086,d4:22:cd:00:30:92,0.7161388397216797,0.1527746021747589,-0.6762456893920898,0.08067432045936584,-0.0038851022254675627,-0.014702905900776386,0.1495189666748047,0,0,0
2042223753,d4:22:cd:00:30:92,0.7161340713500977,0.1527751088142395,-0.6762501001358032,0.08067886531352997,-0.015825610607862473,0.00024117047723848373,0.14937305450439453,0,0,0
2042240420,d4:22:cd:00:30:92,0.7161349654197693,0.15278613567352295,-0.6762470006942749,0.0806758850812912,-0.0035990055184811354,-0.006979862693697214,0.16127681732177734,0,0,0
2042257087,d4:22:cd:00:30:92,0.7161491513252258,0.15279492735862732,-0.6762301325798035,0.08067414164543152,-0.006579774431884289,-0.008502433076500893,0.15029621124267578,0,0,0
2042273754,d4:22:cd:00:30:92,0.7161461114883423,0.15279382467269897,-0.6762330532073975,0.08067941665649414,0.003111300291493535,-0.008076640777289867,0.1577472686767578,0,0,0
2042290421,d4:22:cd:00:30:92,0.7161538600921631,0.1527835726737976,-0.6762272715568542,0.08067798614501953,0.009249413385987282,0.008107485249638557,0.14807605743408203,0,0,0
2042307088,d4:22:cd:00:30:92,0.7161567211151123,0.15278571844100952,-0.6762253642082214,0.08066482841968536,-0.00027134473202750087,0.0036340970546007156,0.16408348083496094,0,0,0
2042323755,d4:22:cd:00:30:92,0.7161555886268616,0.15279388427734375,-0.6762234568595886,0.08067473769187927,-0.0019038834143429995,-0.002234235405921936,0.158599853515625,0,0,0
2042340422,d4:22:cd:00:30:92,0.7161628603935242,0.1527889519929886,-0.6762176752090454,0.08066847920417786,-0.00879389327019453,0.0023075477220118046,0.16251850128173828,0,0,0
2042357089,d4:22:cd:00:30:92,0.7161668539047241,0.15279434621334076,-0.6762120127677917,0.08067041635513306,-0.0009999970206990838,0.0061090560629963875,0.14477062225341797,0,0,0
2042373756,d4:22:cd:00:30:92,0.7161690592765808,0.15279215574264526,-0.6762092709541321,0.08067809045314789,-0.0019302578875795007,0.00023491212050430477,0.16352272033691406,0,0,0
2042390423,d4:22:cd:00:30:92,0.7161707282066345,0.1527876853942871,-0.6762080192565918,0.08068187534809113,0.012697771191596985,-0.0018822025740519166,0.14209365844726562,0,0,0
2042407090,d4:22:cd:00:30:92,0.7161697149276733,0.15279492735862732,-0.6762081980705261,0.08067573606967926,-0.004045137669891119,-0.005681028589606285,0.1577167510986328,0,0,0
2042423757,d4:22:cd:00:30:92,0.7161743640899658,0.15279018878936768,-0.6762048602104187,0.08067281544208527,-0.0063736955635249615,0.0053985086269676685,0.16110706329345703,0,0,0
2042440424,d4:22:cd:00:30:92,0.7161765098571777,0.15277844667434692,-0.676207423210144,0.08065459132194519,0.009290092624723911,-0.006061224266886711,0.15083789825439453,0,0,0
2042457091,d4:22:cd:00:30:92,0.7161693572998047,0.1527780294418335,-0.6762139797210693,0.08066219091415405,0.0070741851814091206,0.004683937411755323,0.1489400863647461,0,0,0
2042473758,d4:22:cd:00:30:92,0.7161686420440674,0.1527845412492752,-0.6762126088142395,0.08066794276237488,-0.005626268219202757,0.0023323576897382736,0.13625144958496094,0,0,0
2042490425,d4:22:cd:00:30:92,0.7161656022071838,0.15277573466300964,-0.6762171983718872,0.08067291975021362,0.000909250695258379,-0.00791235826909542,0.1538982391357422,0,0,0
2042507092,d4:22:cd:00:30:92,0.7161683440208435,0.15278205275535583,-0.6762126684188843,0.08067500591278076,-0.000583368819206953,-0.0020569898188114166,0.1509075164794922,0,0,0
2042523759,d4:22:cd:00:30:92,0.716166615486145,0.1527823507785797,-0.6762140989303589,0.08067680895328522,-0.010141230188310146,-0.01185155101120472,0.14850902557373047,0,0,0
2042540426,d4:22:cd:00:30:92,0.7161674499511719,0.1527779996395111,-0.6762142777442932,0.08067728579044342,0.010123795829713345,-0.014718551188707352,0.15943527221679688,0,0,0
2042557093,d4:22:cd:00:30:92,0.7161657810211182,0.15277481079101562,-0.6762173771858215,0.08067280054092407,-0.008749637752771378,-0.0074123600497841835,0.1515636444091797,0,0,0
2042573760,d4:22:cd:00:30:92,0.7161649465560913,0.1527782529592514,-0.6762182712554932,0.0806659460067749,-0.007641907781362534,0.004555641207844019,0.14957904815673828,0,0,0
2042590427,d4:22:cd:00:30:92,0.7161638140678406,0.15276363492012024,-0.676221489906311,0.08067716658115387,-0.0007586029823869467,0.007987906225025654,0.14989566802978516,0,0,0
2042607094,d4:22:cd:00:30:92,0.7161624431610107,0.15278013050556183,-0.6762197017669678,0.08067271113395691,-0.008042890578508377,-0.002221048343926668,0.14096927642822266,0,0,0
2042623761,d4:22:cd:00:30:92,0.7161657810211182,0.15277595818042755,-0.6762174963951111,0.08066900074481964,0.015950778499245644,-0.0014861376257613301,0.16823577880859375,0,0,0
2042640428,d4:22:cd:00:30:92,0.7161658406257629,0.1527833640575409,-0.6762158870697021,0.08066760003566742,0.010010250844061375,0.0012458611745387316,0.1518421173095703,0,0,0
2042657095,d4:22:cd:00:30:92,0.7161650061607361,0.15278413891792297,-0.6762163043022156,0.08067044615745544,0.003814919153228402,0.009393132291734219,0.1523761749267578,0,0,0
2042673762,d4:22:cd:00:30:92,0.7161698341369629,0.15279410779476166,-0.6762078404426575,0.08067919313907623,-0.006545353215187788,0.004043349530547857,0.16324710845947266,0,0,0
2042690429,d4:22:cd:00:30:92,0.7161668539047241,0.15279987454414368,-0.6762096881866455,0.08067977428436279,-0.014142111875116825,-0.012105015106499195,0.14815330505371094,0,0,0
2042707096,d4:22:cd:00:30:92,0.7161670327186584,0.1527971476316452,-0.6762101650238037,0.08067908883094788,-0.015865396708250046,0.0009646819089539349,0.15126323699951172,0,0,0
2042723763,d4:22:cd:00:30:92,0.7161659002304077,0.15279129147529602,-0.676212728023529,0.08067935705184937,0.0009101447649300098,0.0006039320142008364,0.15880870819091797,0,0,0
2042740430,d4:22:cd:00:30:92,0.7161586880683899,0.15278840065002441,-0.6762195825576782,0.08069100975990295,0.007959743030369282,0.006917278748005629,0.15555381774902344,0,0,0
2042757097,d4:22:cd:00:30:92,0.7161561250686646,0.15279726684093475,-0.6762194633483887,0.08069807291030884,0.0022328945342451334,0.007598322816193104,0.15733814239501953,0,0,0
2042773764,d4:22:cd:00:30:92,0.7161497473716736,0.15279947221279144,-0.6762256622314453,0.08069844543933868,0.0013468890683725476,-0.010937606915831566,0.163543701171875,0,0,0
2042790431,d4:22:cd:00:30:92,0.716158926486969,0.15279048681259155,-0.6762180328369141,0.08069756627082825,-0.006754561327397823,-0.003802178893238306,0.15253257751464844,0,0,0
2042807098,d4:22:cd:00:30:92,0.7161607146263123,0.152795672416687,-0.6762151718139648,0.08069683611392975,0.002539107110351324,0.00794186256825924,0.15581130981445312,0,0,0
2042823765,d4:22:cd:00:30:92,0.7161686420440674,0.15279561281204224,-0.6762084364891052,0.08068327605724335,-0.010870329104363918,-0.00412627262994647,0.1523141860961914,0,0,0
2042840432,d4:22:cd:00:30:92,0.7161642909049988,0.1527898907661438,-0.6762157678604126,0.08067071437835693,0.01573978178203106,-0.003027035854756832,0.1642141342163086,0,0,0
2042857099,d4:22:cd:00:30:92,0.7161707282066345,0.1527850478887558,-0.6762092113494873,0.08067792654037476,0.00874203909188509,0.012913460843265057,0.16847896575927734,0,0,0
2042873766,d4:22:cd:00:30:92,0.7161715626716614,0.15279346704483032,-0.6762069463729858,0.08067268133163452,-0.01154712587594986,0.0004398734890855849,0.16143512725830078,0,0,0
2042890433,d4:22:cd:00:30:92,0.7161768078804016,0.15279529988765717,-0.6762014031410217,0.08066990971565247,0.00029816626920364797,0.00005163149398867972,0.14867877960205078,0,0,0
2042907100,d4:22:cd:00:30:92,0.7161697745323181,0.15278096497058868,-0.6762109994888306,0.08067861199378967,-0.007735336199402809,-0.007071726489812136,0.1511383056640625,0,0,0
2042923767,d4:22:cd:00:30:92,0.7161678075790405,0.1527860462665558,-0.6762117147445679,0.0806812047958374,-0.012921283952891827,0.007809989620000124,0.15990352630615234,0,0,0
2042940434,d4:22:cd:00:30:92,0.716166615486145,0.1527809500694275,-0.676213800907135,0.08068321645259857,0.0027505503967404366,0.002523684874176979,0.15063762664794922,0,0,0
2042957101,d4:22:cd:00:30:92,0.7161674499511719,0.1527796983718872,-0.6762142181396484,0.08067405223846436,0.004491269122809172,0.0027851948980242014,0.1510772705078125,0,0,0
2042973768,d4:22:cd:00:30:92,0.7161638736724854,0.1527758538722992,-0.6762188673019409,0.0806746631860733,0.01010278519243002,-0.003003119956701994,0.14145755767822266,0,0,0
2042990435,d4:22:cd:00:30:92,0.7161607146263123,0.15277087688446045,-0.6762226819992065,0.08067964017391205,-0.0058980598114430904,0.010283831506967545,0.15668010711669922,0,0,0
2043007102,d4:22:cd:00:30:92,0.7161623239517212,0.15276463329792023,-0.6762222647666931,0.08068205416202545,-0.003382645081728697,0.009427106007933617,0.15637779235839844,0,0,0
2043023769,d4:22:cd:00:30:92,0.716158390045166,0.15275582671165466,-0.6762285828590393,0.08068014681339264,-0.0123361274600029,-0.005070838611572981,0.16211223602294922,0,0,0
2043040436,d4:22:cd:00:30:92,0.7161580920219421,0.15275248885154724,-0.6762300133705139,0.08067716658115387,-0.004225736018270254,-0.005978971719741821,0.15375232696533203,0,0,0
2043057103,d4:22:cd:00:30:92,0.7161637544631958,0.15275055170059204,-0.6762257218360901,0.08066634833812714,0.007297250907868147,-0.003311791457235813,0.14511394500732422,0,0,0
2043073770,d4:22:cd:00:30:92,0.7161663174629211,0.15274660289287567,-0.6762245297431946,0.08066149055957794,0.006992379203438759,-0.00995683204382658,0.15391159057617188,0,0,0
2043090437,d4:22:cd:00:30:92,0.7161672115325928,0.15275774896144867,-0.6762200593948364,0.08067068457603455,-0.0021019158884882927,0.009651065804064274,0.14284992218017578,0,0,0
2043107104,d4:22:cd:00:30:92,0.7161705493927002,0.15276017785072327,-0.6762158870697021,0.0806703269481659,0.005419742316007614,0.007917946204543114,0.14208316802978516,0,0,0
2043123771,d4:22:cd:00:30:92,0.7161654233932495,0.15276721119880676,-0.6762203574180603,0.080664724111557,-0.0015771074686199427,-0.0005717461463063955,0.13964366912841797,0,0,0
2043140438,d4:22:cd:00:30:92,0.7161648273468018,0.15276981890201569,-0.6762211322784424,0.08065859973430634,-0.008642352186143398,0.006446784362196922,0.1404409408569336,0,0,0
2043157105,d4:22:cd:00:30:92,0.7161672115325928,0.1527719795703888,-0.6762183308601379,0.08065664768218994,0.008975386619567871,-0.007751652970910072,0.15575885772705078,0,0,0
2043173772,d4:22:cd:00:30:92,0.7161648273468018,0.1527738720178604,-0.6762216091156006,0.08064700663089752,0.0017107682069763541,0.008289424702525139,0.16022777557373047,0,0,0
2043190439,d4:22:cd:00:30:92,0.7161667346954346,0.15276861190795898,-0.6762224435806274,0.08063264191150665,-0.006294124759733677,0.004480317234992981,0.1369953155517578,0,0,0
2043207106,d4:22:cd:00:30:92,0.7161632776260376,0.15277864038944244,-0.6762237548828125,0.08063371479511261,0.0060120513662695885,0.007201587315648794,0.16498279571533203,0,0,0
2043223773,d4:22:cd:00:30:92,0.7161707878112793,0.15277209877967834,-0.6762171983718872,0.08063527941703796,0.008574403822422028,-0.0036942220758646727,0.1563272476196289,0,0,0
2043240440,d4:22:cd:00:30:92,0.7161710262298584,0.15277571976184845,-0.6762152910232544,0.08064188063144684,-0.02000485733151436,-0.011537962593138218,0.14848041534423828,0,0,0
2043257107,d4:22:cd:00:30:92,0.7161718010902405,0.1527721881866455,-0.676215410232544,0.08063989877700806,0.008394699543714523,-0.008717005141079426,0.15164756774902344,0,0,0
2043273774,d4:22:cd:00:30:92,0.7161730527877808,0.15278078615665436,-0.67621248960495,0.080637127161026,-0.019907405599951744,0.010108373127877712,0.16457176208496094,0,0,0
2043290441,d4:22:cd:00:30:92,0.7161728143692017,0.1527889370918274,-0.6762110590934753,0.08063751459121704,-0.013624902814626694,-0.0008272214327007532,0.14835643768310547,0,0,0
2043307108,d4:22:cd:00:30:92,0.7161722779273987,0.1527891308069229,-0.6762110590934753,0.08064132928848267,0.007043787278234959,-0.00465957447886467,0.15254974365234375,0,0,0
2043323775,d4:22:cd:00:30:92,0.7161689400672913,0.1527974009513855,-0.6762123107910156,0.08064496517181396,-0.011966883204877377,0.00024519371800124645,0.15143871307373047,0,0,0
2043340442,d4:22:cd:00:30:92,0.7161654233932495,0.15280349552631378,-0.6762139797210693,0.08065076172351837,0.004294577986001968,-0.005573295522481203,0.1480255126953125,0,0,0
2043357109,d4:22:cd:00:30:92,0.716167688369751,0.15281188488006592,-0.676207959651947,0.08066429197788239,0.00045641345786862075,0.0036870697513222694,0.15122318267822266,0,0,0
2043373776,d4:22:cd:00:30:92,0.7161659598350525,0.15280598402023315,-0.6762120723724365,0.0806553065776825,0.01302275899797678,-0.0075326100923120975,0.17117595672607422,0,0,0
2043390443,d4:22:cd:00:30:92,0.7161678075790405,0.15279485285282135,-0.676213800907135,0.0806460827589035,-0.0013848863309249282,-0.008079770021140575,0.1406116485595703,0,0,0
2043407110,d4:22:cd:00:30:92,0.7161747217178345,0.1527903527021408,-0.6762084364891052,0.08063812553882599,-0.011986999772489071,-0.0013106799451634288,0.15330982208251953,0,0,0
