sep=,
Measurement Mode:,Extended (Quaternion)
StartTime:,Tue, 24 May 2022 07:21:13 GMT
© Xsens Technologies B. V. 2005-2022

Timestamp,Address,Quaternion_w,Quaternion_x,Quaternion_y,Quaternion_z,FreeAcc_x,FreeAcc_y,FreeAcc_z,Status,ClipCountAcc,ClipCountGyr
78397570,d4:22:cd:00:30:92,0.6712040901184082,-0.008802633732557297,-0.0032956472132354975,-0.7412130832672119,-0.012019543908536434,0.008105337619781494,0.09826946258544922,0,0,0
78414237,d4:22:cd:00:30:92,0.6711897253990173,-0.00879801344126463,-0.003287765197455883,-0.7412261962890625,0.0020865178667008877,0.003549602348357439,0.09796524047851562,0,0,0
78430904,d4:22:cd:00:30:92,0.6711770296096802,-0.008799700066447258,-0.0032812547869980335,-0.7412376403808594,-0.0009874802781268954,0.004684160929173231,0.1005563735961914,0,0,0
78447571,d4:22:cd:00:30:92,0.6711679100990295,-0.00880955345928669,-0.0032840725034475327,-0.741245687007904,0.003475355915725231,0.001411232864484191,0.10011959075927734,0,0,0
78464238,d4:22:cd:00:30:92,0.6711735129356384,-0.008805472403764725,-0.003286203369498253,-0.7412407398223877,0.0008851130260154605,-0.011364635080099106,0.0984354019165039,0,0,0
78480905,d4:22:cd:00:30:92,0.6711589694023132,-0.008803756907582283,-0.00328436098061502,-0.7412539124488831,-0.0016438469756394625,-0.011852297931909561,0.11465263366699219,0,0,0
78497572,d4:22:cd:00:30:92,0.6711409091949463,-0.008796053938567638,-0.0032846417743712664,-0.7412703633308411,0.013737155124545097,-0.0074326335452497005,0.09410285949707031,0,0,0
78514239,d4:22:cd:00:30:92,0.6711381077766418,-0.008802492171525955,-0.0032760021276772022,-0.7412728667259216,0.0040076677687466145,0.0037021010648459196,0.09176063537597656,0,0,0
78530906,d4:22:cd:00:30:92,0.6711298227310181,-0.00880929734557867,-0.003268421860411763,-0.7412803769111633,0.00035830173874273896,-0.008691671304404736,0.09741401672363281,0,0,0
78547573,d4:22:cd:00:30:92,0.6711090803146362,-0.008804799057543278,-0.003274110145866871,-0.7412991523742676,0.00864308699965477,0.009154818020761013,0.1022186279296875,0,0,0
78564240,d4:22:cd:00:30:92,0.6710957288742065,-0.008812434040009975,-0.003276308998465538,-0.741311252117157,-0.0036314220633357763,0.014929492026567459,0.10886001586914062,0,0,0
78580907,d4:22:cd:00:30:92,0.6710643768310547,-0.008819274604320526,-0.003282909980043769,-0.7413394451141357,-0.008292611688375473,0.005815423093736172,0.10442447662353516,0,0,0
78597574,d4:22:cd:00:30:92,0.6710494160652161,-0.008817573077976704,-0.0032771755941212177,-0.7413530349731445,0.01532805897295475,-0.00862575601786375,0.10282230377197266,0,0,0
78614241,d4:22:cd:00:30:92,0.6710336208343506,-0.008822322823107243,-0.0032838722690939903,-0.7413672804832458,-0.006397721357643604,0.00221719266846776,0.10579681396484375,0,0,0
78630908,d4:22:cd:00:30:92,0.6710215210914612,-0.008821366354823112,-0.0032798158936202526,-0.741378128528595,-0.0001386181975249201,-0.00613180547952652,0.11217403411865234,0,0,0
78647575,d4:22:cd:00:30:92,0.671006441116333,-0.008817071095108986,-0.0032824513036757708,-0.7413918375968933,0.00565703772008419,-0.004256378393620253,0.11941051483154297,0,0,0
78664242,d4:22:cd:00:30:92,0.6709994673728943,-0.008812938816845417,-0.00327924988232553,-0.741398274898529,0.020167076960206032,0.004172281362116337,0.09352970123291016,0,0,0
78680909,d4:22:cd:00:30:92,0.6709781885147095,-0.008812696672976017,-0.0032867786940187216,-0.7414174675941467,-0.0036122924648225307,-0.00446300907060504,0.09509658813476562,0,0,0
78697576,d4:22:cd:00:30:92,0.6709681749343872,-0.008804579265415668,-0.003292650682851672,-0.7414265275001526,0.005010610446333885,-0.008219856768846512,0.11310672760009766,0,0,0
78714243,d4:22:cd:00:30:92,0.6709654927253723,-0.008818233385682106,-0.003286772407591343,-0.7414289116859436,-0.0012019287096336484,-0.007877955213189125,0.09459304809570312,0,0,0
78730910,d4:22:cd:00:30:92,0.6709446907043457,-0.008812948130071163,-0.0032822454813867807,-0.7414478063583374,-0.007464152295142412,0.005223770160228014,0.10178947448730469,0,0,0
78747577,d4:22:cd:00:30:92,0.6709371209144592,-0.008808251470327377,-0.0032911617308855057,-0.7414546608924866,-0.0034761170390993357,0.009484758600592613,0.10903549194335938,0,0,0
78764244,d4:22:cd:00:30:92,0.6709363460540771,-0.008803082630038261,-0.003290837863460183,-0.7414554953575134,0.004323688801378012,-0.00467285979539156,0.1009664535522461,0,0,0
78780911,d4:22:cd:00:30:92,0.6709343194961548,-0.00879679899662733,-0.0032916064374148846,-0.741457462310791,-0.0026565685402601957,-0.007298009004443884,0.0994882583618164,0,0,0
78797578,d4:22:cd:00:30:92,0.6709195971488953,-0.008803125470876694,-0.0032833823934197426,-0.7414706349372864,0.00205748388543725,-0.006389868911355734,0.08652877807617188,0,0,0
78814245,d4:22:cd:00:30:92,0.670905351638794,-0.008812027983367443,-0.003275081980973482,-0.7414834499359131,0.010823513381183147,-0.009309004060924053,0.10152149200439453,0,0,0
78830912,d4:22:cd:00:30:92,0.6708974838256836,-0.008800526149570942,-0.003280209144577384,-0.7414906620979309,0.004470461513847113,0.0035548582673072815,0.09815788269042969,0,0,0
78847579,d4:22:cd:00:30:92,0.670880138874054,-0.008806966245174408,-0.0032783260103315115,-0.7415062785148621,0.0011329225962981582,0.015070552937686443,0.10606861114501953,0,0,0
78864246,d4:22:cd:00:30:92,0.6708723306655884,-0.008808624930679798,-0.003275283146649599,-0.7415133714675903,0.0038985200226306915,0.0028661973774433136,0.10631752014160156,0,0,0
78880913,d4:22:cd:00:30:92,0.6708576083183289,-0.008809039369225502,-0.0032602399587631226,-0.74152672290802,-0.00041372072882950306,0.01762218028306961,0.10735130310058594,0,0,0
78897580,d4:22:cd:00:30:92,0.6708400249481201,-0.008809354156255722,-0.0032599603291600943,-0.741542637348175,-0.000554881407879293,-0.002936202334240079,0.09422588348388672,0,0,0
78914247,d4:22:cd:00:30:92,0.6708254814147949,-0.008821560069918633,-0.003263068152591586,-0.7415555715560913,0.011090191081166267,-0.006371027324348688,0.10484504699707031,0,0,0
78930914,d4:22:cd:00:30:92,0.6708142161369324,-0.008825169876217842,-0.0032658639829605818,-0.7415657639503479,0.005147016141563654,-0.007140966597944498,0.10357284545898438,0,0,0
78947581,d4:22:cd:00:30:92,0.6708083152770996,-0.008817790076136589,-0.003263275371864438,-0.7415711879730225,0.0024550645612180233,-0.015875371173024178,0.09753036499023438,0,0,0
78964248,d4:22:cd:00:30:92,0.6707888245582581,-0.008812379091978073,-0.003277447307482362,-0.741588830947876,-0.0010750048095360398,-0.012709316797554493,0.09994792938232422,0,0,0
78980915,d4:22:cd:00:30:92,0.6707695722579956,-0.008807829581201077,-0.003272280329838395,-0.7416063547134399,0.007450682111084461,0.0037780499551445246,0.10522937774658203,0,0,0
78997582,d4:22:cd:00:30:92,0.6707678437232971,-0.008802030235528946,-0.0032700616866350174,-0.7416079640388489,-0.007252880372107029,-0.007077887188643217,0.0971231460571289,0,0,0
79014249,d4:22:cd:00:30:92,0.6707594394683838,-0.008802461437880993,-0.003270213259384036,-0.7416155934333801,-0.011734080500900745,0.0009493118850514293,0.10894393920898438,0,0,0
79030916,d4:22:cd:00:30:92,0.6707549095153809,-0.008805320598185062,-0.0032724684569984674,-0.7416195869445801,-0.0055923969484865665,-0.013214250095188618,0.10732746124267578,0,0,0
79047583,d4:22:cd:00:30:92,0.6707466840744019,-0.008802790194749832,-0.0032751732505857944,-0.741627037525177,0.015076507814228535,-0.0010239267721772194,0.09952449798583984,0,0,0
79064250,d4:22:cd:00:30:92,0.6707342267036438,-0.008799904026091099,-0.0032745583448559046,-0.7416383624076843,0.01093888096511364,-0.002419632626697421,0.11144733428955078,0,0,0
79080917,d4:22:cd:00:30:92,0.6707285642623901,-0.008795896545052528,-0.0032774368301033974,-0.7416435480117798,-0.005460461601614952,-0.002990809502080083,0.1051015853881836,0,0,0
79097584,d4:22:cd:00:30:92,0.6707127094268799,-0.00878902804106474,-0.003271761815994978,-0.7416579127311707,0.004824941046535969,0.009185055270791054,0.10317230224609375,0,0,0
79114251,d4:22:cd:00:30:92,0.6707034707069397,-0.008797731250524521,-0.0032682614400982857,-0.7416661977767944,-0.0067446972243487835,-0.008023147471249104,0.09334659576416016,0,0,0
79130918,d4:22:cd:00:30:92,0.6707072257995605,-0.00879124365746975,-0.0032650150824338198,-0.741662859916687,-0.009380901232361794,0.0093581797555089,0.10466766357421875,0,0,0
79147585,d4:22:cd:00:30:92,0.6706959009170532,-0.008786285296082497,-0.0032640511635690928,-0.7416732907295227,-0.005052952095866203,-0.00493598310276866,0.09251880645751953,0,0,0
79164252,d4:22:cd:00:30:92,0.6706859469413757,-0.008793113753199577,-0.003263433463871479,-0.741682231426239,-0.005132954102009535,-0.001148919458501041,0.09494495391845703,0,0,0
79180919,d4:22:cd:00:30:92,0.6706769466400146,-0.008788272738456726,-0.0032678323332220316,-0.7416903972625732,-0.004677539225667715,0.012096168473362923,0.09066009521484375,0,0,0
79197586,d4:22:cd:00:30:92,0.6706706881523132,-0.008789117448031902,-0.003256883705034852,-0.7416960597038269,0.0037697467487305403,0.016595054417848587,0.09756755828857422,0,0,0
79214253,d4:22:cd:00:30:92,0.6706640720367432,-0.008781115524470806,-0.0032586632296442986,-0.741702139377594,-0.005548915360122919,0.002134953858330846,0.10404300689697266,0,0,0
79230920,d4:22:cd:00:30:92,0.670649528503418,-0.008776259608566761,-0.0032516615465283394,-0.7417153716087341,-0.001231615780852735,0.0020164919551461935,0.10449981689453125,0,0,0
79247587,d4:22:cd:00:30:92,0.6706463098526001,-0.008775077760219574,-0.003249793080613017,-0.7417182922363281,0.0021785213612020016,0.00465539051219821,0.09716987609863281,0,0,0
79264254,d4:22:cd:00:30:92,0.6706387996673584,-0.008767073974013329,-0.0032500720117241144,-0.7417252063751221,-0.004089228808879852,-0.0032833004370331764,0.10552310943603516,0,0,0
79280921,d4:22:cd:00:30:92,0.670628011226654,-0.00876878947019577,-0.003260204568505287,-0.7417349815368652,-0.0013692071661353111,0.011131319217383862,0.09887313842773438,0,0,0
79297588,d4:22:cd:00:30:92,0.6706253290176392,-0.008768710307776928,-0.003256002673879266,-0.7417373061180115,-0.004766370169818401,-0.004187815356999636,0.10059738159179688,0,0,0
79314255,d4:22:cd:00:30:92,0.6706137657165527,-0.008764620870351791,-0.0032595465891063213,-0.7417477965354919,-0.0010729582281783223,0.00590609572827816,0.09387588500976562,0,0,0
79330922,d4:22:cd:00:30:92,0.6706112027168274,-0.008756318129599094,-0.003264660481363535,-0.7417501211166382,0.0063926223665475845,-0.003924035467207432,0.09789371490478516,0,0,0
79347589,d4:22:cd:00:30:92,0.6706182956695557,-0.008755736984312534,-0.0032604988664388657,-0.7417437434196472,0.008714298717677593,-0.008227570913732052,0.10306167602539062,0,0,0
79364256,d4:22:cd:00:30:92,0.6706101894378662,-0.008763425052165985,-0.003263973630964756,-0.7417510747909546,0.00254100002348423,-0.007489025127142668,0.1002054214477539,0,0,0
79380923,d4:22:cd:00:30:92,0.6705997586250305,-0.008755011484026909,-0.0032579018734395504,-0.7417606711387634,-0.004696634132415056,0.0001080126385204494,0.09510040283203125,0,0,0
79397590,d4:22:cd:00:30:92,0.6705947518348694,-0.008753913454711437,-0.0032545693684369326,-0.7417652010917664,-0.01634984090924263,0.00541271548718214,0.09758853912353516,0,0,0
79414257,d4:22:cd:00:30:92,0.670578122138977,-0.008750845678150654,-0.003251566318795085,-0.7417802214622498,-0.0015289753209799528,-0.013274088501930237,0.09884262084960938,0,0,0
79430924,d4:22:cd:00:30:92,0.6705688238143921,-0.008750701323151588,-0.0032546627335250378,-0.7417886257171631,-0.001632643397897482,-0.0025853917468339205,0.09504413604736328,0,0,0
79447591,d4:22:cd:00:30:92,0.6705626249313354,-0.008748704567551613,-0.0032597172539681196,-0.7417942881584167,0.008489514701068401,0.005328803788870573,0.10181713104248047,0,0,0
79464258,d4:22:cd:00:30:92,0.6705617308616638,-0.008754104375839233,-0.0032645228784531355,-0.7417950630187988,-0.0005686483928002417,-0.002871411619707942,0.0953531265258789,0,0,0
79480925,d4:22:cd:00:30:92,0.6705523729324341,-0.008749366737902164,-0.0032599959522485733,-0.7418034672737122,0.0023572654463350773,0.0017729955725371838,0.09949016571044922,0,0,0
79497592,d4:22:cd:00:30:92,0.6705498099327087,-0.00875566340982914,-0.0032547430600970984,-0.7418057322502136,0.006877162028104067,0.008249405771493912,0.10190773010253906,0,0,0
79514259,d4:22:cd:00:30:92,0.6705495119094849,-0.008756480179727077,-0.0032518510706722736,-0.7418059706687927,-0.009145313873887062,-0.00025451838155277073,0.09789180755615234,0,0,0
79530926,d4:22:cd:00:30:92,0.6705516576766968,-0.008752048015594482,-0.0032627752516418695,-0.7418040633201599,0.013064805418252945,0.00041167595190927386,0.1092996597290039,0,0,0
79547593,d4:22:cd:00:30:92,0.6705524325370789,-0.008754098787903786,-0.003269471460953355,-0.7418033480644226,-0.0011787567054852843,0.006951186340302229,0.10396575927734375,0,0,0
79564260,d4:22:cd:00:30:92,0.6705539226531982,-0.008759016171097755,-0.0032770931720733643,-0.7418019771575928,0.00651337718591094,-0.0038449501153081656,0.10127639770507812,0,0,0
79580927,d4:22:cd:00:30:92,0.6705471277236938,-0.008772574365139008,-0.0032710125669837,-0.7418079972267151,0.007307085674256086,0.011845174245536327,0.10852718353271484,0,0,0
79597594,d4:22:cd:00:30:92,0.6705422401428223,-0.00876492727547884,-0.003270725952461362,-0.741812527179718,-0.010372997261583805,0.0012312839971855283,0.0978546142578125,0,0,0
79614261,d4:22:cd:00:30:92,0.6705423593521118,-0.008765176869928837,-0.0032680868171155453,-0.7418123483657837,0.00727442279458046,0.016516881063580513,0.09963512420654297,0,0,0
79630928,d4:22:cd:00:30:92,0.6705403923988342,-0.008751041255891323,-0.0032708728685975075,-0.7418142557144165,0.001863993238657713,-0.005305359605699778,0.1067361831665039,0,0,0
79647595,d4:22:cd:00:30:92,0.6705224514007568,-0.008759756572544575,-0.0032658646814525127,-0.7418304681777954,0.006369743961840868,-0.013844039291143417,0.10062789916992188,0,0,0
79664262,d4:22:cd:00:30:92,0.6705254912376404,-0.00875445082783699,-0.003276640549302101,-0.7418277263641357,0.0003907670034095645,-0.0031458749435842037,0.08640098571777344,0,0,0
79680929,d4:22:cd:00:30:92,0.6705077290534973,-0.008751843124628067,-0.0032819120679050684,-0.7418437004089355,0.008793598972260952,-0.004495386965572834,0.09441566467285156,0,0,0
79697596,d4:22:cd:00:30:92,0.6705067157745361,-0.00875091552734375,-0.003272579750046134,-0.7418445944786072,0.007436776999384165,0.004421969875693321,0.10470104217529297,0,0,0
79714263,d4:22:cd:00:30:92,0.6705002188682556,-0.00876613799482584,-0.0032679785508662462,-0.7418504357337952,-0.001188902067951858,-0.001969865057617426,0.10196304321289062,0,0,0
79730930,d4:22:cd:00:30:92,0.670501172542572,-0.008761785924434662,-0.0032594630029052496,-0.7418496608734131,0.011343799531459808,-0.002723676385357976,0.09817028045654297,0,0,0
79747597,d4:22:cd:00:30:92,0.6704958081245422,-0.00876376312226057,-0.0032438901253044605,-0.7418544888496399,0.0033269815612584352,0.004204565193504095,0.1041412353515625,0,0,0
79764264,d4:22:cd:00:30:92,0.6704908013343811,-0.008762232027947903,-0.003247224260121584,-0.7418590784072876,0.0037721425760537386,-0.002092950977385044,0.09558296203613281,0,0,0
79780931,d4:22:cd:00:30:92,0.6705015301704407,-0.008746728301048279,-0.0032533665653318167,-0.7418494820594788,0.006377650424838066,0.013264728710055351,0.10920333862304688,0,0,0
79797598,d4:22:cd:00:30:92,0.6704970598220825,-0.008745351806282997,-0.0032564462162554264,-0.7418535351753235,0.007762334309518337,0.0004052499425597489,0.09275245666503906,0,0,0
79814265,d4:22:cd:00:30:92,0.6704911589622498,-0.008737990632653236,-0.00325759663246572,-0.741858959197998,-0.0023338350001722574,-0.009836507961153984,0.08716869354248047,0,0,0
79830932,d4:22:cd:00:30:92,0.6705081462860107,-0.008768339641392231,-0.003301339689642191,-0.7418431043624878,0.00900642853230238,0.0018174187280237675,0.09614849090576172,0,0,0
79847599,d4:22:cd:00:30:92,0.6705052852630615,-0.008765067905187607,-0.0032949568703770638,-0.7418456673622131,0.01064913347363472,0.01190438773483038,0.10903644561767578,0,0,0
79864266,d4:22:cd:00:30:92,0.6704980134963989,-0.008766045793890953,-0.0032933263573795557,-0.7418522238731384,0.011359957046806812,-0.0008814722532406449,0.09932613372802734,0,0,0
79880933,d4:22:cd:00:30:92,0.6704909205436707,-0.008768529631197453,-0.003292352193966508,-0.741858720779419,0.004733730107545853,0.0035533146001398563,0.10545539855957031,0,0,0
79897600,d4:22:cd:00:30:92,0.6704724431037903,-0.008784931153059006,-0.003287314437329769,-0.7418752312660217,0.004070136230438948,-0.004486065823584795,0.0973215103149414,0,0,0
79914267,d4:22:cd:00:30:92,0.6704583168029785,-0.008769266307353973,-0.003287674393504858,-0.741888165473938,-0.004946278873831034,0.0013373094843700528,0.09783649444580078,0,0,0
79930934,d4:22:cd:00:30:92,0.6704491972923279,-0.0087743466719985,-0.0032870862632989883,-0.7418962717056274,0.004011629614979029,-0.0039469278417527676,0.1055145263671875,0,0,0
79947601,d4:22:cd:00:30:92,0.6704486608505249,-0.008782546035945415,-0.0032802093774080276,-0.7418968081474304,-0.006796190980821848,-0.0032461031805723906,0.10493278503417969,0,0,0
79964268,d4:22:cd:00:30:92,0.6704394817352295,-0.008777426555752754,-0.0032753695268183947,-0.7419050335884094,-0.0027276421897113323,0.003536802716553211,0.10415935516357422,0,0,0
79980935,d4:22:cd:00:30:92,0.6704347729682922,-0.008778325282037258,-0.0032672968227416277,-0.7419093251228333,-0.004266862291842699,0.0006576973246410489,0.09421730041503906,0,0,0
79997602,d4:22:cd:00:30:92,0.6696110963821411,-0.00850661750882864,-0.00463569350540638,-0.7426488399505615,-0.1956828087568283,0.3599162995815277,-0.056911468505859375,0,0,0
80014269,d4:22:cd:00:30:92,0.6609557867050171,-0.0072400192730128765,-0.006827214732766151,-0.7503589987754822,0.10278847813606262,0.6940773725509644,0.31778526306152344,0,0,0
80030936,d4:22:cd:00:30:92,0.6453395485877991,-0.006563314702361822,-0.007393078878521919,-0.7638320922851562,-0.03559157997369766,-0.011642705649137497,0.002796173095703125,0,0,0
80047603,d4:22:cd:00:30:92,0.632201611995697,-0.006420062854886055,-0.007638940121978521,-0.7747397422790527,0.1558510810136795,-0.78851717710495,0.1585531234741211,0,0,0
80064270,d4:22:cd:00:30:92,0.6212931871414185,-0.006682966835796833,-0.007616137154400349,-0.7835127115249634,-0.015325214713811874,0.18591633439064026,0.12692737579345703,0,0,0
80080937,d4:22:cd:00:30:92,0.6109507083892822,-0.007374616805464029,-0.007080760784447193,-0.7916026711463928,-0.014186091721057892,0.28926679491996765,0.15545940399169922,0,0,0
80097604,d4:22:cd:00:30:92,0.6016871929168701,-0.008104892447590828,-0.003667110577225685,-0.7986823320388794,0.06719475239515305,-0.2012144923210144,0.15576839447021484,0,0,0
80114271,d4:22:cd:00:30:92,0.5936264991760254,-0.008046947419643402,-0.003767657093703747,-0.8046916723251343,-0.2018144428730011,0.18078859150409698,-0.14044666290283203,0,0,0
80130938,d4:22:cd:00:30:92,0.5868126749992371,-0.007940738461911678,-0.004555832128971815,-0.8096711039543152,0.026402505114674568,-0.258253812789917,0.20954322814941406,0,0,0
80147605,d4:22:cd:00:30:92,0.5816165804862976,-0.00790131650865078,-0.004333707969635725,-0.8134130835533142,-0.066209577023983,-0.005069378763437271,0.043163299560546875,0,0,0
80164272,d4:22:cd:00:30:92,0.5779392719268799,-0.007864330895245075,-0.004497281275689602,-0.8160295486450195,-0.04435376450419426,-0.14654797315597534,0.12668895721435547,0,0,0
80180939,d4:22:cd:00:30:92,0.5759438872337341,-0.00784303154796362,-0.004499926697462797,-0.8174393773078918,-0.058054208755493164,-0.07158789038658142,0.09363555908203125,0,0,0
80197606,d4:22:cd:00:30:92,0.575519859790802,-0.007836423814296722,-0.004510139115154743,-0.817737877368927,-0.03918309882283211,-0.09415657818317413,0.1103830337524414,0,0,0
80214273,d4:22:cd:00:30:92,0.5755901336669922,-0.007835888303816319,-0.004530179314315319,-0.8176883459091187,-0.049920178949832916,0.03178654983639717,0.0999441146850586,0,0,0
80230940,d4:22:cd:00:30:92,0.5756492614746094,-0.007839804515242577,-0.004515684675425291,-0.8176467418670654,-0.03616876155138016,0.013734550215303898,0.10186195373535156,0,0,0
80247607,d4:22:cd:00:30:92,0.5757107734680176,-0.007844374515116215,-0.004516495857387781,-0.817603349685669,-0.024109171703457832,0.015271864831447601,0.10829639434814453,0,0,0
80264274,d4:22:cd:00:30:92,0.5757684111595154,-0.00784863531589508,-0.00451065506786108,-0.8175627589225769,-0.038358740508556366,0.020900821313261986,0.09435081481933594,0,0,0
80280941,d4:22:cd:00:30:92,0.5758225917816162,-0.007850286550819874,-0.0045080301351845264,-0.8175246119499207,-0.03529788553714752,0.01705930568277836,0.10988044738769531,0,0,0
80297608,d4:22:cd:00:30:92,0.575893223285675,-0.00785406120121479,-0.004503852222114801,-0.8174748420715332,-0.03763701021671295,0.02051400952041149,0.09996604919433594,0,0,0
80314275,d4:22:cd:00:30:92,0.5759555697441101,-0.007844784297049046,-0.004516375716775656,-0.8174309730529785,-0.03069712594151497,0.008472076617181301,0.09862995147705078,0,0,0
80330942,d4:22:cd:00:30:92,0.576008677482605,-0.007838422432541847,-0.00450950488448143,-0.8173936605453491,-0.04083887115120888,0.015441657975316048,0.09031867980957031,0,0,0
80347609,d4:22:cd:00:30:92,0.5760619640350342,-0.007834414951503277,-0.004501075483858585,-0.8173561692237854,-0.031074028462171555,0.014766114763915539,0.111480712890625,0,0,0
80364276,d4:22:cd:00:30:92,0.5761223435401917,-0.007836801931262016,-0.0045043788850307465,-0.817313551902771,-0.040696386247873306,0.022155169397592545,0.11092281341552734,0,0,0
80380943,d4:22:cd:00:30:92,0.5761812925338745,-0.007832620292901993,-0.004500904120504856,-0.8172720670700073,-0.018872050568461418,0.012312137521803379,0.10969829559326172,0,0,0
80397610,d4:22:cd:00:30:92,0.5762274265289307,-0.007827922701835632,-0.0045084236189723015,-0.81723952293396,-0.03827871009707451,0.017721351236104965,0.09849262237548828,0,0,0
80414277,d4:22:cd:00:30:92,0.5762893557548523,-0.007823057472705841,-0.004509329330176115,-0.8171958327293396,-0.027520518749952316,0.013973250985145569,0.09582996368408203,0,0,0
80430944,d4:22:cd:00:30:92,0.576353132724762,-0.007814997807145119,-0.004511632025241852,-0.8171510696411133,-0.02513073943555355,0.009878378361463547,0.09733200073242188,0,0,0
80447611,d4:22:cd:00:30:92,0.5764118432998657,-0.007815327495336533,-0.004516254644840956,-0.8171096444129944,-0.018991747871041298,0.01706947386264801,0.1035757064819336,0,0,0
80464278,d4:22:cd:00:30:92,0.5764665007591248,-0.007808811031281948,-0.00452516321092844,-0.8170709609985352,-0.04111691191792488,0.021497147157788277,0.10998249053955078,0,0,0
80480945,d4:22:cd:00:30:92,0.5765222311019897,-0.007816685363650322,-0.00452123349532485,-0.8170316219329834,-0.05014215037226677,0.00847628153860569,0.0915975570678711,0,0,0
80497612,d4:22:cd:00:30:92,0.5765904188156128,-0.0078073241747915745,-0.004528549965471029,-0.8169835805892944,-0.03615052253007889,0.014628217555582523,0.0850830078125,0,0,0
80514279,d4:22:cd:00:30:92,0.5766468644142151,-0.007803767453879118,-0.004519966430962086,-0.8169438242912292,-0.028962017968297005,0.0287599079310894,0.10815715789794922,0,0,0
80530946,d4:22:cd:00:30:92,0.5767092704772949,-0.00779444957152009,-0.004528665915131569,-0.8168997764587402,-0.036522381007671356,0.02716938592493534,0.09358024597167969,0,0,0
80547613,d4:22:cd:00:30:92,0.5767655968666077,-0.00778904277831316,-0.004530868027359247,-0.816860020160675,-0.032652903348207474,0.021764187142252922,0.09846210479736328,0,0,0
80564280,d4:22:cd:00:30:92,0.5768140554428101,-0.007795584853738546,-0.004538498818874359,-0.8168256878852844,-0.025980189442634583,0.011161241680383682,0.10575199127197266,0,0,0
80580947,d4:22:cd:00:30:92,0.5768723487854004,-0.007807064801454544,-0.004536438267678022,-0.8167844414710999,-0.0391954630613327,0.012098745442926884,0.10670089721679688,0,0,0
80597614,d4:22:cd:00:30:92,0.5769195556640625,-0.007814191281795502,-0.0045390562154352665,-0.8167510032653809,-0.04232562333345413,-0.0020310028921812773,0.09770774841308594,0,0,0
80614281,d4:22:cd:00:30:92,0.5769840478897095,-0.007819483987987041,-0.004545074421912432,-0.8167053461074829,-0.03356316685676575,0.006676066666841507,0.10284709930419922,0,0,0
80630948,d4:22:cd:00:30:92,0.5770407915115356,-0.00782437901943922,-0.004542434588074684,-0.8166652321815491,-0.0338069312274456,0.020789677277207375,0.09096336364746094,0,0,0
80647615,d4:22:cd:00:30:92,0.5770869851112366,-0.007824787870049477,-0.004537253174930811,-0.8166325092315674,-0.02516290545463562,0.022789789363741875,0.10386466979980469,0,0,0
80664282,d4:22:cd:00:30:92,0.5771580338478088,-0.007832654751837254,-0.004529546946287155,-0.816582441329956,-0.04406013339757919,0.01534775085747242,0.1065225601196289,0,0,0
80680949,d4:22:cd:00:30:92,0.5772131681442261,-0.007833550684154034,-0.0045302147045731544,-0.816543459892273,-0.03464137762784958,0.029122265055775642,0.09851264953613281,0,0,0
80697616,d4:22:cd:00:30:92,0.577268123626709,-0.007831891067326069,-0.004528737161308527,-0.8165045380592346,-0.04816564545035362,0.016854029148817062,0.08985233306884766,0,0,0
80714283,d4:22:cd:00:30:92,0.5773187875747681,-0.007832334376871586,-0.004522112198174,-0.8164687156677246,-0.04140955209732056,0.020841024816036224,0.10630989074707031,0,0,0
80730950,d4:22:cd:00:30:92,0.5775037407875061,-0.007827234454452991,-0.004472343251109123,-0.8163381814956665,-0.03654075041413307,-0.05266417935490608,0.11593151092529297,0,0,0
80747617,d4:22:cd:00:30:92,0.5789728164672852,-0.007843800820410252,-0.0036132007371634245,-0.8153011798858643,-0.024107515811920166,-0.028499053791165352,0.11642169952392578,0,0,0
80764284,d4:22:cd:00:30:92,0.5794775485992432,-0.007832319475710392,-0.0033700051717460155,-0.8149437308311462,-0.038646481931209564,0.11960921436548233,0.07600212097167969,0,0,0
80780951,d4:22:cd:00:30:92,0.579664409160614,-0.007743183057755232,-0.0032818953040987253,-0.8148118853569031,-0.032713621854782104,-0.006825977470725775,0.09665679931640625,0,0,0
80797618,d4:22:cd:00:30:92,0.5802487134933472,-0.007445699069648981,-0.002650064881891012,-0.8144009709358215,-0.029192470014095306,-0.07123792171478271,0.1345682144165039,0,0,0
80814285,d4:22:cd:00:30:92,0.5814493894577026,-0.007529581896960735,-0.002444368787109852,-0.8135440945625305,-0.053274694830179214,0.07419365644454956,0.07316780090332031,0,0,0
80830952,d4:22:cd:00:30:92,0.5826747417449951,-0.007850014604628086,-0.003962360322475433,-0.8126580119132996,-0.08420916646718979,0.08873181790113449,0.026984214782714844,0,0,0
80847619,d4:22:cd:00:30:92,0.5831817388534546,-0.007866925559937954,-0.004302181303501129,-0.8122924566268921,0.040781714022159576,-0.011628292500972748,0.1713581085205078,0,0,0
80864286,d4:22:cd:00:30:92,0.5832613110542297,-0.007864149287343025,-0.0043472666293382645,-0.8122349381446838,-0.04108032211661339,0.045513421297073364,0.08436107635498047,0,0,0
80880953,d4:22:cd:00:30:92,0.583301305770874,-0.007863997481763363,-0.004366258159279823,-0.8122062087059021,-0.022563692182302475,-0.0016954365419223905,0.11777973175048828,0,0,0
80897620,d4:22:cd:00:30:92,0.583353579044342,-0.007858275435864925,-0.004373862408101559,-0.812168538570404,-0.02456020936369896,0.020207712426781654,0.09794998168945312,0,0,0
80914287,d4:22:cd:00:30:92,0.5834158658981323,-0.007851539179682732,-0.0043791513890028,-0.8121237754821777,-0.027009107172489166,0.028442848473787308,0.09595203399658203,0,0,0
80930954,d4:22:cd:00:30:92,0.5834721922874451,-0.007862834259867668,-0.004381048493087292,-0.8120833039283752,-0.0399361215531826,0.018360886722803116,0.091278076171875,0,0,0
80947621,d4:22:cd:00:30:92,0.5835326910018921,-0.007866990752518177,-0.0043823313899338245,-0.8120397925376892,-0.03743375465273857,0.010326329618692398,0.10074138641357422,0,0,0
80964288,d4:22:cd:00:30:92,0.5835830569267273,-0.007863983511924744,-0.0043883658945560455,-0.8120036125183105,-0.042266327887773514,0.006950302980840206,0.09670352935791016,0,0,0
80980955,d4:22:cd:00:30:92,0.58363938331604,-0.00787126924842596,-0.00438993563875556,-0.8119630217552185,-0.04252725839614868,0.02110862359404564,0.10641765594482422,0,0,0
80997622,d4:22:cd:00:30:92,0.583687961101532,-0.007881059311330318,-0.004385227337479591,-0.8119280338287354,-0.03371163457632065,0.019362758845090866,0.09837627410888672,0,0,0
81014289,d4:22:cd:00:30:92,0.583745002746582,-0.007875789888203144,-0.004388679750263691,-0.8118870854377747,-0.03413225710391998,0.018200496211647987,0.09724140167236328,0,0,0
81030956,d4:22:cd:00:30:92,0.5838009119033813,-0.00787832960486412,-0.004400195553898811,-0.8118467330932617,-0.035147298127412796,0.004481535870581865,0.09784793853759766,0,0,0
81047623,d4:22:cd:00:30:92,0.5838534235954285,-0.007883249782025814,-0.004402643069624901,-0.8118089437484741,-0.03550588712096214,0.00710268272086978,0.11277103424072266,0,0,0
81064290,d4:22:cd:00:30:92,0.5839056968688965,-0.007891787216067314,-0.004417387302964926,-0.8117711544036865,-0.036080509424209595,0.018670808523893356,0.0961751937866211,0,0,0
81080957,d4:22:cd:00:30:92,0.583961546421051,-0.007880069315433502,-0.004608742892742157,-0.8117300271987915,-0.043420884758234024,0.031543001532554626,0.09126758575439453,0,0,0
81097624,d4:22:cd:00:30:92,0.583952009677887,-0.007865571416914463,-0.004789577331393957,-0.8117360472679138,-0.024642307311296463,0.01894696243107319,0.11498832702636719,0,0,0
81114291,d4:22:cd:00:30:92,0.5839149355888367,-0.00786892231553793,-0.0048668659292161465,-0.811762273311615,-0.032711513340473175,0.0035145701840519905,0.11674308776855469,0,0,0
81130958,d4:22:cd:00:30:92,0.5839648246765137,-0.007864801213145256,-0.004843521863222122,-0.8117263317108154,-0.02310330979526043,0.0009490639204159379,0.12046051025390625,0,0,0
81147625,d4:22:cd:00:30:92,0.5846489667892456,-0.007656574714928865,-0.0049760304391384125,-0.8112350702285767,-0.10321442782878876,-0.053779520094394684,0.04648876190185547,0,0,0
81164292,d4:22:cd:00:30:92,0.5858935117721558,-0.006215288303792477,-0.00628353375941515,-0.8103399276733398,-0.12248022109270096,0.020236510783433914,0.006590843200683594,0,0,0
81180959,d4:22:cd:00:30:92,0.5872613191604614,-0.004238189198076725,-0.008600497618317604,-0.8093406558036804,-0.0301629900932312,0.05349751189351082,0.09400081634521484,0,0,0
81197626,d4:22:cd:00:30:92,0.5879818201065063,-0.0036073888186365366,-0.009165213443338871,-0.8088142275810242,0.0998939573764801,0.05990302935242653,0.24981403350830078,0,0,0
81214293,d4:22:cd:00:30:92,0.5880507230758667,-0.003157136496156454,-0.009288321249186993,-0.8087646961212158,-0.05440898984670639,0.0037427698262035847,0.08057022094726562,0,0,0
81230960,d4:22:cd:00:30:92,0.5889753699302673,-0.002853499725461006,-0.0093703493475914,-0.8080917596817017,-0.36669662594795227,-0.19035367667675018,0.13853740692138672,0,0,0
81247627,d4:22:cd:00:30:92,0.591509222984314,-0.003256086725741625,-0.00920917559415102,-0.8062391877174377,-0.20312628149986267,-0.03590887412428856,0.11481285095214844,0,0,0
81264294,d4:22:cd:00:30:92,0.5934121608734131,-0.0034199394285678864,-0.00913858413696289,-0.8048398494720459,0.08642895519733429,0.09784110635519028,0.10117530822753906,0,0,0
81280961,d4:22:cd:00:30:92,0.5947527885437012,-0.003647133009508252,-0.009049789980053902,-0.803849458694458,0.042406924068927765,-0.021081728860735893,0.09420394897460938,0,0,0
81297628,d4:22:cd:00:30:92,0.5956501364707947,-0.0033906532917171717,-0.009093135595321655,-0.8031855225563049,0.1720627248287201,0.16945648193359375,0.06604957580566406,0,0,0
81314295,d4:22:cd:00:30:92,0.5962400436401367,-0.0029118910897523165,-0.009203308261930943,-0.8027482032775879,-0.023297324776649475,0.009365350008010864,0.103515625,0,0,0
81330962,d4:22:cd:00:30:92,0.5971665978431702,-0.0025444228667765856,-0.009285102598369122,-0.8020594120025635,-0.18663913011550903,-0.056486088782548904,0.11388301849365234,0,0,0
81347629,d4:22:cd:00:30:92,0.5983830094337463,-0.002218369161710143,-0.009335572831332684,-0.8011528253555298,-0.07602750509977341,-0.009907645173370838,0.0942850112915039,0,0,0
81364296,d4:22:cd:00:30:92,0.5996418595314026,-0.0020709936507046223,-0.00932419952005148,-0.8002116084098816,0.03643382713198662,0.04040432348847389,0.107513427734375,0,0,0
81380963,d4:22:cd:00:30:92,0.6004534363746643,-0.0020493771880865097,-0.009307277388870716,-0.7996031045913696,0.13194045424461365,0.10873176157474518,0.10830116271972656,0,0,0
81397630,d4:22:cd:00:30:92,0.6008801460266113,-0.0020585793536156416,-0.009290061891078949,-0.7992824912071228,-0.013654515147209167,0.037954628467559814,0.09606456756591797,0,0,0
81414297,d4:22:cd:00:30:92,0.601039469242096,-0.0020719817839562893,-0.009296181611716747,-0.7991626262664795,-0.018740378320217133,0.030238522216677666,0.1011962890625,0,0,0
81430964,d4:22:cd:00:30:92,0.6011846661567688,-0.0020548710599541664,-0.00927712768316269,-0.7990536093711853,-0.03188862279057503,-0.005786553956568241,0.09783649444580078,0,0,0
81447631,d4:22:cd:00:30:92,0.6013397574424744,-0.0020365791860967875,-0.009243149310350418,-0.7989373207092285,0.02230348438024521,0.03581499680876732,0.0966949462890625,0,0,0
81464298,d4:22:cd:00:30:92,0.6014885902404785,-0.0020223772153258324,-0.009214730001986027,-0.7988256812095642,-0.024908091872930527,-0.0037276914808899164,0.09736061096191406,0,0,0
81480965,d4:22:cd:00:30:92,0.6016496419906616,-0.0018901090370491147,-0.008991975337266922,-0.7987072467803955,-0.007065747398883104,-0.042071737349033356,0.1297588348388672,0,0,0
81497632,d4:22:cd:00:30:92,0.6021833419799805,-0.0017657253192737699,-0.008010843768715858,-0.798315703868866,-0.016290996223688126,0.007357380352914333,0.1126718521118164,0,0,0
81514299,d4:22:cd:00:30:92,0.6022809147834778,-0.0017972966888919473,-0.006495053879916668,-0.7982558012008667,0.01751258224248886,-0.04812109097838402,0.1495075225830078,0,0,0
81530966,d4:22:cd:00:30:92,0.6026759743690491,-0.002021634019911289,-0.0042035640217363834,-0.7979725003242493,-0.07081428170204163,0.06265995651483536,0.048325538635253906,0,0,0
81547633,d4:22:cd:00:30:92,0.6030384302139282,-0.002765343990176916,-0.002864853711798787,-0.7977022528648376,0.005957936868071556,0.013636760413646698,0.1306324005126953,0,0,0
81564300,d4:22:cd:00:30:92,0.603435754776001,-0.0032547288574278355,-0.002192513085901737,-0.7974021434783936,-0.06375392526388168,0.01413843035697937,0.0560302734375,0,0,0
81580967,d4:22:cd:00:30:92,0.6039608716964722,-0.0034046415239572525,-0.0019978401251137257,-0.7970042824745178,-0.045409221202135086,-0.005017212592065334,0.08038616180419922,0,0,0
81597634,d4:22:cd:00:30:92,0.6044198870658875,-0.0033917920663952827,-0.001969612669199705,-0.7966562509536743,-0.02484261989593506,0.05027354881167412,0.10327625274658203,0,0,0
81614301,d4:22:cd:00:30:92,0.6046929359436035,-0.003360919188708067,-0.0019641730468720198,-0.7964492440223694,-0.02209130860865116,0.020439092069864273,0.10412311553955078,0,0,0
81630968,d4:22:cd:00:30:92,0.6051750779151917,-0.0033506646286696196,-0.0019479432376101613,-0.7960830926895142,-0.022771339863538742,-0.016301635652780533,0.09662914276123047,0,0,0
81647635,d4:22:cd:00:30:92,0.6056933403015137,-0.003333097556605935,-0.0019372423412278295,-0.795689046382904,-0.018311582505702972,0.01609600894153118,0.09832477569580078,0,0,0
81664302,d4:22:cd:00:30:92,0.6061541438102722,-0.0033259482588618994,-0.0019262534333392978,-0.795337975025177,-0.025667889043688774,0.00826913584023714,0.10770702362060547,0,0,0
81680969,d4:22:cd:00:30:92,0.6066005825996399,-0.0033300744835287333,-0.0019182099495083094,-0.79499751329422,-0.030597450211644173,0.002235917141661048,0.09539318084716797,0,0,0
81697636,d4:22:cd:00:30:92,0.6069889664649963,-0.0033589506056159735,-0.001913911779411137,-0.7947009205818176,-0.030927130952477455,0.04462823644280434,0.09850502014160156,0,0,0
81714303,d4:22:cd:00:30:92,0.6072692275047302,-0.0033892926294356585,-0.0019008953822776675,-0.7944867610931396,-0.018997089937329292,-0.004664802923798561,0.10577869415283203,0,0,0
81730970,d4:22:cd:00:30:92,0.6076358556747437,-0.0034156835172325373,-0.0018843242432922125,-0.7942061424255371,-0.04117203503847122,0.013418331742286682,0.10255718231201172,0,0,0
81747637,d4:22:cd:00:30:92,0.607892632484436,-0.0034103826619684696,-0.001878821407444775,-0.7940096855163574,-0.047072332352399826,0.007869690656661987,0.11477851867675781,0,0,0
81764304,d4:22:cd:00:30:92,0.6085730791091919,-0.0034314545337110758,-0.0018444698071107268,-0.7934882640838623,-0.04881146922707558,0.0010178430238738656,0.09669208526611328,0,0,0
81780971,d4:22:cd:00:30:92,0.6090470552444458,-0.0034428921062499285,-0.0018235400784760714,-0.7931245565414429,-0.014207647182047367,0.009543327614665031,0.09241867065429688,0,0,0
81797638,d4:22:cd:00:30:92,0.609279453754425,-0.00347512005828321,-0.0017995998496189713,-0.7929459810256958,0.015680450946092606,0.03066210076212883,0.10147476196289062,0,0,0
81814305,d4:22:cd:00:30:92,0.6093341708183289,-0.0035228959750384092,-0.0017612826777622104,-0.7929038405418396,-0.006595287472009659,0.020336121320724487,0.09568595886230469,0,0,0
81830972,d4:22:cd:00:30:92,0.6093679070472717,-0.003595419228076935,-0.0017245430499315262,-0.7928776741027832,-0.025019517168402672,0.003302772296592593,0.09296035766601562,0,0,0
81847639,d4:22:cd:00:30:92,0.6093807220458984,-0.004201330244541168,-0.001506278058513999,-0.7928653359413147,0.03796583041548729,0.02737349271774292,0.15337085723876953,0,0,0
81864306,d4:22:cd:00:30:92,0.6087714433670044,-0.00487111508846283,-0.0012809153413400054,-0.7933298349380493,0.055903416126966476,0.09204618632793427,0.0771036148071289,0,0,0
81880973,d4:22:cd:00:30:92,0.6080428957939148,-0.005294646602123976,-0.001165454275906086,-0.7938858270645142,0.23264987766742706,-0.0672408863902092,0.06505298614501953,0,0,0
81897640,d4:22:cd:00:30:92,0.6076751947402954,-0.00564351724460721,-0.0010622423142194748,-0.7941650152206421,-0.11378556489944458,0.03881062567234039,0.11394500732421875,0,0,0
81914307,d4:22:cd:00:30:92,0.6073656678199768,-0.005926901008933783,-0.0009984677890315652,-0.794399619102478,0.011628842912614346,-0.010970347560942173,0.06856822967529297,0,0,0
81930974,d4:22:cd:00:30:92,0.6070508360862732,-0.006085963454097509,-0.0009625194361433387,-0.7946391105651855,-0.0985066369175911,-0.0033156750723719597,0.10569572448730469,0,0,0
81947641,d4:22:cd:00:30:92,0.6071299314498901,-0.0062128403224051,-0.0009186798124574125,-0.7945777773857117,-0.09480898827314377,-0.07931768894195557,0.09683895111083984,0,0,0
81964308,d4:22:cd:00:30:92,0.6078373193740845,-0.006520768627524376,-0.0008507125312462449,-0.7940344214439392,-0.013054297305643559,-0.02424212172627449,0.10271167755126953,0,0,0
81980975,d4:22:cd:00:30:92,0.6093648672103882,-0.0070987665094435215,-0.0006106445216573775,-0.7928580045700073,-0.25763553380966187,-0.14370201528072357,0.14652252197265625,0,0,0
81997642,d4:22:cd:00:30:92,0.6117652654647827,-0.007909565232694149,-0.00015294761396944523,-0.7909999489784241,-0.14870914816856384,-0.10735387355089188,0.08010101318359375,0,0,0
82014309,d4:22:cd:00:30:92,0.6145398020744324,-0.0082095293328166,0.000035222998121753335,-0.7888431549072266,0.036254558712244034,0.09857999533414841,0.10733604431152344,0,0,0
82030976,d4:22:cd:00:30:92,0.6171996593475342,-0.00870028417557478,0.0004642823478206992,-0.7867584228515625,-0.011764224618673325,0.1034984290599823,0.1004171371459961,0,0,0
82047643,d4:22:cd:00:30:92,0.6196290850639343,-0.008728121407330036,0.0007397466688416898,-0.7848459482192993,-0.11230111867189407,-0.036463625729084015,0.05917072296142578,0,0,0
82064310,d4:22:cd:00:30:92,0.6224753260612488,-0.008963949047029018,0.001172676682472229,-0.7825872898101807,-0.04643775150179863,0.04738053306937218,0.20862293243408203,0,0,0
82080977,d4:22:cd:00:30:92,0.6249978542327881,-0.01028579194098711,0.002624459331855178,-0.7805544137954712,0.025938192382454872,0.011959399096667767,0.3038063049316406,0,0,0
82097644,d4:22:cd:00:30:92,0.6263346672058105,-0.012315885163843632,0.004979360848665237,-0.7794412970542908,-0.0036756217014044523,0.10897505283355713,0.14534664154052734,0,0,0
82114311,d4:22:cd:00:30:92,0.6269541382789612,-0.014161678962409496,0.00739818112924695,-0.7788923382759094,0.06312839686870575,-0.044650737196207047,0.10665321350097656,0,0,0
82130978,d4:22:cd:00:30:92,0.6273254156112671,-0.01616092398762703,0.00987661350518465,-0.7785269021987915,0.061794355511665344,0.018663248047232628,0.13750934600830078,0,0,0
82147645,d4:22:cd:00:30:92,0.6271325945854187,-0.018098173663020134,0.012142154388129711,-0.7786076664924622,0.20481659471988678,0.1648230105638504,-0.028253555297851562,0,0,0
82164312,d4:22:cd:00:30:92,0.6263405084609985,-0.019421815872192383,0.013325883075594902,-0.7791938185691833,0.05347808822989464,0.11968307197093964,0.07182693481445312,0,0,0
82180979,d4:22:cd:00:30:92,0.6250344514846802,-0.020840801298618317,0.015032850205898285,-0.7801740765571594,0.011809921823441982,0.04105541855096817,0.14989471435546875,0,0,0
82197646,d4:22:cd:00:30:92,0.6235395669937134,-0.022150609642267227,0.01685553789138794,-0.7812962532043457,-0.002584347501397133,-0.010414348915219307,0.07582950592041016,0,0,0
82214313,d4:22:cd:00:30:92,0.6222824454307556,-0.02355664223432541,0.018600577488541603,-0.7822171449661255,0.02346598170697689,-0.06367174535989761,0.1443195343017578,0,0,0
82230980,d4:22:cd:00:30:92,0.6212556958198547,-0.025091949850320816,0.020690221339464188,-0.7829328775405884,0.007364444434642792,0.08974456042051315,0.06566810607910156,0,0,0
82247647,d4:22:cd:00:30:92,0.6203863024711609,-0.026470238342881203,0.022668961435556412,-0.7835216522216797,0.0605793222784996,0.13779233396053314,0.17719554901123047,0,0,0
82264314,d4:22:cd:00:30:92,0.6201210021972656,-0.028844095766544342,0.0260189026594162,-0.7835438847541809,0.04456747695803642,0.09459000080823898,0.3520536422729492,0,0,0
82280981,d4:22:cd:00:30:92,0.6195022463798523,-0.03130164369940758,0.030714528635144234,-0.7837690711021423,0.03526419773697853,0.11439325660467148,0.16597366333007812,0,0,0
82297648,d4:22:cd:00:30:92,0.619264543056488,-0.034256089478731155,0.035343416035175323,-0.7836381196975708,-0.08863953500986099,-0.13862119615077972,0.07136249542236328,0,0,0
82314315,d4:22:cd:00:30:92,0.6193501949310303,-0.036955684423446655,0.0403825119137764,-0.7832043170928955,-0.014797382056713104,-0.15744304656982422,0.18060970306396484,0,0,0
82330982,d4:22:cd:00:30:92,0.6199280619621277,-0.040514398366212845,0.04572393372654915,-0.7822770476341248,0.18742647767066956,-0.09440863132476807,0.13449954986572266,0,0,0
82347649,d4:22:cd:00:30:92,0.6206904053688049,-0.04425704851746559,0.05105297639966011,-0.7811393141746521,0.0975775420665741,-0.15849675238132477,0.057969093322753906,0,0,0
82364316,d4:22:cd:00:30:92,0.6210001111030579,-0.048671454191207886,0.05638061836361885,-0.7802635431289673,0.19335636496543884,-0.05998227372765541,0.21816158294677734,0,0,0
82380983,d4:22:cd:00:30:92,0.6209872961044312,-0.053947847336530685,0.062389347702264786,-0.7794690728187561,0.20503491163253784,-0.05105916038155556,0.12656784057617188,0,0,0
82397650,d4:22:cd:00:30:92,0.6205171942710876,-0.058896876871585846,0.06846348196268082,-0.7789751887321472,0.07896450161933899,0.047189563512802124,0.0730447769165039,0,0,0
82414317,d4:22:cd:00:30:92,0.6194313764572144,-0.06354445219039917,0.07462571561336517,-0.7789082527160645,0.0006175104063004255,-0.12379195541143417,0.1552753448486328,0,0,0
82430984,d4:22:cd:00:30:92,0.6183186173439026,-0.06877337396144867,0.08127110451459885,-0.778683066368103,0.001036876579746604,-0.17211121320724487,0.185089111328125,0,0,0
82447651,d4:22:cd:00:30:92,0.6171332597732544,-0.07547484338283539,0.08897924423217773,-0.7781599164009094,0.22318126261234283,-0.14249193668365479,0.3742256164550781,0,0,0
82464318,d4:22:cd:00:30:92,0.6163901090621948,-0.08336873352527618,0.09776173532009125,-0.7768884897232056,0.10304967314004898,-0.32011678814888,0.15714073181152344,0,0,0
82480985,d4:22:cd:00:30:92,0.6167027354240417,-0.0905941054224968,0.10603968054056168,-0.7747427821159363,0.18613281846046448,-0.16036204993724823,-0.06930828094482422,0,0,0
82497652,d4:22:cd:00:30:92,0.6171994805335999,-0.09679743647575378,0.11417797952890396,-0.7724367380142212,0.3503707945346832,0.17126451432704926,0.07599067687988281,0,0,0
82514319,d4:22:cd:00:30:92,0.6170274019241333,-0.1027216985821724,0.12235871702432632,-0.7705543637275696,0.1869690865278244,0.006034011486917734,-0.0017709732055664062,0,0,0
82530986,d4:22:cd:00:30:92,0.6164946556091309,-0.10789504647254944,0.12979812920093536,-0.7690549492835999,0.1771286576986313,0.16160701215267181,0.026918411254882812,0,0,0
82547653,d4:22:cd:00:30:92,0.6151815056800842,-0.11376692354679108,0.13755859434604645,-0.7679106593132019,0.24442650377750397,-0.015249785967171192,0.3491325378417969,0,0,0
82564320,d4:22:cd:00:30:92,0.6142154932022095,-0.12241910398006439,0.14621520042419434,-0.7657506465911865,0.12646134197711945,-0.46749305725097656,0.28369903564453125,0,0,0
82580987,d4:22:cd:00:30:92,0.6133751273155212,-0.13121673464775085,0.15551342070102692,-0.7631309628486633,0.07288455963134766,0.10464351624250412,0.036472320556640625,0,0,0
82597654,d4:22:cd:00:30:92,0.6119744777679443,-0.13980267941951752,0.16475777328014374,-0.7607874274253845,0.29085445404052734,0.27346110343933105,0.11273002624511719,0,0,0
82614321,d4:22:cd:00:30:92,0.6101436614990234,-0.14800159633159637,0.17503991723060608,-0.7584071159362793,0.2965139150619507,-0.004172930959612131,0.08584880828857422,0,0,0
82630988,d4:22:cd:00:30:92,0.6083530783653259,-0.15540187060832977,0.1848267912864685,-0.7560396194458008,-0.043322622776031494,-0.10292363911867142,-0.07074642181396484,0,0,0
82647655,d4:22:cd:00:30:92,0.6071072816848755,-0.16163934767246246,0.19364121556282043,-0.7535228729248047,-0.056600186973810196,-0.12183249741792679,-0.06641483306884766,0,0,0
82664322,d4:22:cd:00:30:92,0.6062369346618652,-0.16771578788757324,0.20128124952316284,-0.7508888840675354,-0.0017610585782676935,-0.09841778129339218,-0.03685760498046875,0,0,0
82680989,d4:22:cd:00:30:92,0.60588538646698,-0.17409494519233704,0.20756599307060242,-0.7480041980743408,0.07336141914129257,-0.021846044808626175,0.04555034637451172,0,0,0
82697656,d4:22:cd:00:30:92,0.6052650213241577,-0.1800183802843094,0.2139182984828949,-0.7453098297119141,0.13280078768730164,0.32425829768180847,0.044976234436035156,0,0,0
82714323,d4:22:cd:00:30:92,0.6042945384979248,-0.18548022210597992,0.22069668769836426,-0.7427774667739868,0.1835595667362213,-0.1158812940120697,0.08207893371582031,0,0,0
82730990,d4:22:cd:00:30:92,0.6036738157272339,-0.19114945828914642,0.22721339762210846,-0.7398744225502014,0.10277260094881058,-0.17456920444965363,0.07349872589111328,0,0,0
82747657,d4:22:cd:00:30:92,0.6030755639076233,-0.19670362770557404,0.23351798951625824,-0.7369376420974731,0.13981707394123077,-0.10367994755506516,-0.010029792785644531,0,0,0
82764324,d4:22:cd:00:30:92,0.6030206084251404,-0.20104803144931793,0.23913425207138062,-0.7340032458305359,0.2703739106655121,-0.15148691833019257,-0.07221508026123047,0,0,0
82780991,d4:22:cd:00:30:92,0.6034336090087891,-0.20488356053829193,0.24414637684822083,-0.7309468388557434,0.1984894573688507,0.21635092794895172,0.05436420440673828,0,0,0
82797658,d4:22:cd:00:30:92,0.6034457683563232,-0.2081741839647293,0.24881713092327118,-0.7284276485443115,0.08174349367618561,0.08723587542772293,0.014678955078125,0,0,0
82814325,d4:22:cd:00:30:92,0.6021712422370911,-0.2103123664855957,0.2530469298362732,-0.7274103760719299,-0.19492553174495697,0.017844492569565773,0.012921333312988281,0,0,0
82830992,d4:22:cd:00:30:92,0.6000593304634094,-0.21222136914730072,0.25721585750579834,-0.7271389961242676,0.008276461623609066,0.11305162310600281,0.1559896469116211,0,0,0
82847659,d4:22:cd:00:30:92,0.5971226096153259,-0.21496577560901642,0.2621847093105316,-0.726975679397583,0.13944503664970398,-0.08626236766576767,0.20232486724853516,0,0,0
82864326,d4:22:cd:00:30:92,0.5945471525192261,-0.21883529424667358,0.26715514063835144,-0.7261219024658203,0.04705607146024704,-0.14835470914840698,0.13811969757080078,0,0,0
82880993,d4:22:cd:00:30:92,0.5926305055618286,-0.22351700067520142,0.27215901017189026,-0.7244024872779846,0.0818881094455719,-0.022638285532593727,0.12688350677490234,0,0,0
82897660,d4:22:cd:00:30:92,0.5914991497993469,-0.22827456891536713,0.27712222933769226,-0.7219576239585876,0.4423588514328003,0.08954118937253952,0.08940792083740234,0,0,0
82914327,d4:22:cd:00:30:92,0.5903789401054382,-0.2326946258544922,0.2824670076370239,-0.7193874716758728,0.3397870659828186,0.09914732724428177,0.09075164794921875,0,0,0
82930994,d4:22:cd:00:30:92,0.5888561010360718,-0.23653610050678253,0.28776517510414124,-0.7172799110412598,0.009229743853211403,-0.18108494579792023,0.04018974304199219,0,0,0
82947661,d4:22:cd:00:30:92,0.5871167182922363,-0.24000583589076996,0.29276975989341736,-0.7155258059501648,0.19359339773654938,-0.09792013466358185,0.10014629364013672,0,0,0
82964328,d4:22:cd:00:30:92,0.5853550434112549,-0.24388305842876434,0.2975926101207733,-0.7136660218238831,0.1874951869249344,-0.09951768815517426,0.08649826049804688,0,0,0
82980995,d4:22:cd:00:30:92,0.5844742059707642,-0.24817626178264618,0.3022412955760956,-0.710949182510376,0.19093449413776398,-0.012063329108059406,0.1314849853515625,0,0,0
82997662,d4:22:cd:00:30:92,0.5837180018424988,-0.2528657615184784,0.30757495760917664,-0.707622766494751,0.36210450530052185,0.12068504095077515,0.1475515365600586,0,0,0
83014329,d4:22:cd:00:30:92,0.5828384160995483,-0.25831228494644165,0.3138948678970337,-0.7035938501358032,0.42912375926971436,0.046563223004341125,0.1881265640258789,0,0,0
83030996,d4:22:cd:00:30:92,0.5813949108123779,-0.26428475975990295,0.3210829794406891,-0.6993134617805481,0.22850701212882996,-0.06865748018026352,0.08156871795654297,0,0,0
83047663,d4:22:cd:00:30:92,0.5798416137695312,-0.2692207098007202,0.32677212357521057,-0.6960775852203369,-0.03451308235526085,-0.06676443666219711,-0.05476665496826172,0,0,0
83064330,d4:22:cd:00:30:92,0.5782337188720703,-0.2729097604751587,0.3324488699436188,-0.6932849884033203,0.137057363986969,0.016591142863035202,0.038433074951171875,0,0,0
83080997,d4:22:cd:00:30:92,0.5767151117324829,-0.27728840708732605,0.33820226788520813,-0.6900219917297363,0.35089388489723206,-0.12065296620130539,0.17574691772460938,0,0,0
83097664,d4:22:cd:00:30:92,0.5749248266220093,-0.2829582691192627,0.34470662474632263,-0.6859836578369141,0.226101353764534,-0.07271569222211838,0.10830402374267578,0,0,0
83114331,d4:22:cd:00:30:92,0.5732028484344482,-0.2888614535331726,0.35091084241867065,-0.6818059086799622,0.14338567852973938,-0.15264470875263214,0.020616531372070312,0,0,0
83130998,d4:22:cd:00:30:92,0.5718283653259277,-0.2943950593471527,0.3567887544631958,-0.6775292754173279,0.23197773098945618,0.0461193285882473,0.034905433654785156,0,0,0
83147665,d4:22:cd:00:30:92,0.5703016519546509,-0.2990490198135376,0.36305496096611023,-0.6734366416931152,0.4340231716632843,0.1266028732061386,0.0793008804321289,0,0,0
83164332,d4:22:cd:00:30:92,0.5685562491416931,-0.3038010895252228,0.369514137506485,-0.6692593097686768,0.5164151787757874,0.10677593946456909,0.051436424255371094,0,0,0
83180999,d4:22:cd:00:30:92,0.566493034362793,-0.30810603499412537,0.3761136829853058,-0.6653532385826111,0.2232903391122818,-0.05610175058245659,0.03222084045410156,0,0,0
83197666,d4:22:cd:00:30:92,0.5641445517539978,-0.3121093511581421,0.3827907145023346,-0.6616647243499756,0.10020666569471359,-0.21900570392608643,0.05951499938964844,0,0,0
83214333,d4:22:cd:00:30:92,0.561852216720581,-0.3175537586212158,0.3891470730304718,-0.6573023796081543,0.36872440576553345,-0.1445031315088272,0.04913043975830078,0,0,0
83231000,d4:22:cd:00:30:92,0.5599375367164612,-0.32444462180137634,0.39428994059562683,-0.6524885296821594,0.2079157680273056,0.12110769748687744,-0.0049457550048828125,0,0,0
83247667,d4:22:cd:00:30:92,0.5577762126922607,-0.3301245868206024,0.39887720346450806,-0.6486913561820984,0.41390085220336914,-0.028072891756892204,0.01950359344482422,0,0,0
83264334,d4:22:cd:00:30:92,0.5553678274154663,-0.3352000415325165,0.40336400270462036,-0.6453721523284912,0.3420380651950836,-0.21997272968292236,0.010973930358886719,0,0,0
83281001,d4:22:cd:00:30:92,0.5528098940849304,-0.3394964039325714,0.408052533864975,-0.6423678994178772,0.2036462277173996,-0.03739137202501297,0.058623313903808594,0,0,0
83297668,d4:22:cd:00:30:92,0.5499352216720581,-0.343082457780838,0.4129181206226349,-0.6398158669471741,0.1514371782541275,0.12260746955871582,0.03260040283203125,0,0,0
83314335,d4:22:cd:00:30:92,0.5473443269729614,-0.3466905355453491,0.4173610806465149,-0.637204647064209,0.3287629783153534,-0.10471313446760178,0.03578758239746094,0,0,0
83331002,d4:22:cd:00:30:92,0.5449009537696838,-0.3505321443080902,0.42128515243530273,-0.6346094012260437,0.2751949727535248,0.03104281984269619,0.06534671783447266,0,0,0
83347669,d4:22:cd:00:30:92,0.5425117611885071,-0.3541335165500641,0.4251883029937744,-0.6320487260818481,0.12379175424575806,0.1061822846531868,0.05302715301513672,0,0,0
83364336,d4:22:cd:00:30:92,0.5404729247093201,-0.35772904753685,0.4290218651294708,-0.6291736364364624,0.34537869691848755,0.0916520431637764,0.08146286010742188,0,0,0
83381003,d4:22:cd:00:30:92,0.5377283692359924,-0.36172929406166077,0.43344107270240784,-0.6262021660804749,0.47893038392066956,0.008915484882891178,0.0777883529663086,0,0,0
83397670,d4:22:cd:00:30:92,0.5345350503921509,-0.3658209443092346,0.4378490447998047,-0.6234866380691528,0.37850645184516907,-0.07639046758413315,0.03995037078857422,0,0,0
83414337,d4:22:cd:00:30:92,0.5318687558174133,-0.3702017366886139,0.44199255108833313,-0.6202492117881775,0.4023514688014984,-0.16684235632419586,0.035033226013183594,0,0,0
83431004,d4:22:cd:00:30:92,0.529262900352478,-0.3744997978210449,0.4461362957954407,-0.6169223785400391,0.38452407717704773,-0.04635636508464813,0.05434703826904297,0,0,0
83447671,d4:22:cd:00:30:92,0.5262688994407654,-0.37821489572525024,0.4505521357059479,-0.6140012741088867,0.12728145718574524,0.0419180653989315,0.009179115295410156,0,0,0
83464338,d4:22:cd:00:30:92,0.5232913494110107,-0.38122352957725525,0.4544888138771057,-0.6117799282073975,0.16179722547531128,-0.07440567761659622,0.015260696411132812,0,0,0
83481005,d4:22:cd:00:30:92,0.5205385088920593,-0.3846266269683838,0.458300918340683,-0.6091489195823669,0.46781328320503235,-0.04828483238816261,0.060718536376953125,0,0,0
83497672,d4:22:cd:00:30:92,0.5172474980354309,-0.38833239674568176,0.4621747136116028,-0.6066692471504211,0.5211561918258667,-0.0010357589926570654,0.046296119689941406,0,0,0
83514339,d4:22:cd:00:30:92,0.5135836005210876,-0.3925779163837433,0.4662304222583771,-0.6039402484893799,0.5006858110427856,0.05914599820971489,0.047763824462890625,0,0,0
83531006,d4:22:cd:00:30:92,0.5098012685775757,-0.39651161432266235,0.4707353413105011,-0.601073682308197,0.24189957976341248,0.009787632152438164,0.07166576385498047,0,0,0
83547673,d4:22:cd:00:30:92,0.5051734447479248,-0.40040892362594604,0.47643327713012695,-0.5978996753692627,0.047396592795848846,0.09217115491628647,0.02718830108642578,0,0,0
83564340,d4:22:cd:00:30:92,0.5020405054092407,-0.40323755145072937,0.4806475043296814,-0.5952587127685547,0.48968222737312317,-0.06608875840902328,-0.03067493438720703,0,0,0
83581007,d4:22:cd:00:30:92,0.49979379773139954,-0.4057520031929016,0.48388442397117615,-0.5928131341934204,0.9889726638793945,-0.03836778551340103,0.021289825439453125,0,0,0
83597674,d4:22:cd:00:30:92,0.4971654713153839,-0.4075468182563782,0.4871181845664978,-0.5911412239074707,-0.09157460182905197,0.0447651743888855,0.0035772323608398438,0,0,0
83614341,d4:22:cd:00:30:92,0.49387192726135254,-0.40481990575790405,0.4899103045463562,-0.5934639573097229,-0.5740385055541992,0.01947311870753765,0.043959617614746094,0,0,0
83631008,d4:22:cd:00:30:92,0.4897547960281372,-0.4010816216468811,0.4932014048099518,-0.5966793298721313,-0.4261283576488495,-0.03456449136137962,0.054564476013183594,0,0,0
83647675,d4:22:cd:00:30:92,0.487102210521698,-0.39786118268966675,0.4960264563560486,-0.5986615419387817,0.18595585227012634,-0.2080053985118866,0.055024147033691406,0,0,0
83664342,d4:22:cd:00:30:92,0.4856751263141632,-0.3951282203197479,0.49785786867141724,-0.6001091599464417,0.22654132544994354,0.08798900246620178,0.04035377502441406,0,0,0
83681009,d4:22:cd:00:30:92,0.4845605194568634,-0.3936261236667633,0.4991198480129242,-0.6009484529495239,0.5206723213195801,-0.03101152926683426,0.06063079833984375,0,0,0
83697676,d4:22:cd:00:30:92,0.48417264223098755,-0.3940586745738983,0.500507652759552,-0.5998225212097168,0.485602468252182,-0.2200925350189209,0.06577873229980469,0,0,0
83714343,d4:22:cd:00:30:92,0.48458442091941833,-0.3956964910030365,0.5015263557434082,-0.5975562334060669,0.3328963816165924,0.05336036533117294,0.04420757293701172,0,0,0
83731010,d4:22:cd:00:30:92,0.48408156633377075,-0.39688608050346375,0.5025638341903687,-0.5963021516799927,0.27692002058029175,0.03109579347074032,0.036231040954589844,0,0,0
83747677,d4:22:cd:00:30:92,0.4831569790840149,-0.3978399336338043,0.5036473274230957,-0.5955016613006592,0.39658015966415405,-0.0529593825340271,0.04245948791503906,0,0,0
83764344,d4:22:cd:00:30:92,0.48167550563812256,-0.3994385302066803,0.5043954253196716,-0.5949981808662415,0.5125281810760498,-0.30693870782852173,0.03837776184082031,0,0,0
83781011,d4:22:cd:00:30:92,0.47962015867233276,-0.40124788880348206,0.5053776502609253,-0.5946075916290283,0.509852945804596,0.124803826212883,0.04871845245361328,0,0,0
83797678,d4:22:cd:00:30:92,0.47812870144844055,-0.40220314264297485,0.5061248540878296,-0.5945278406143188,0.045129723846912384,-0.0814782977104187,0.035056114196777344,0,0,0
83814345,d4:22:cd:00:30:92,0.477190226316452,-0.4027823805809021,0.5067117214202881,-0.5943898558616638,0.1891462802886963,-0.18693283200263977,0.04109477996826172,0,0,0
83831012,d4:22:cd:00:30:92,0.476529985666275,-0.40339407324790955,0.5071001052856445,-0.59417325258255,0.1410185694694519,0.05214892700314522,0.05006122589111328,0,0,0
83847679,d4:22:cd:00:30:92,0.4753527343273163,-0.40387842059135437,0.5076395273208618,-0.5943267345428467,0.301949679851532,0.0933276116847992,0.051980018615722656,0,0,0
83864346,d4:22:cd:00:30:92,0.4746209979057312,-0.40465718507766724,0.5086204409599304,-0.5935424566268921,0.4421287477016449,-0.1012234315276146,0.05273628234863281,0,0,0
83881013,d4:22:cd:00:30:92,0.4745067059993744,-0.4065716862678528,0.5092928409576416,-0.5917462706565857,0.37881624698638916,-0.14822104573249817,0.05110454559326172,0,0,0
83897680,d4:22:cd:00:30:92,0.4741269052028656,-0.4084243178367615,0.5100985169410706,-0.5900787711143494,0.3294057846069336,-0.046000752598047256,0.03787994384765625,0,0,0
83914347,d4:22:cd:00:30:92,0.4735932946205139,-0.40995436906814575,0.511053204536438,-0.5886183381080627,0.3459853231906891,-0.038374267518520355,0.04738140106201172,0,0,0
83931014,d4:22:cd:00:30:92,0.4731559157371521,-0.411363810300827,0.5121811032295227,-0.5870041847229004,0.38117900490760803,-0.0999259352684021,0.041263580322265625,0,0,0
83947681,d4:22:cd:00:30:92,0.47249698638916016,-0.41254621744155884,0.5133740901947021,-0.5856614708900452,0.26295381784439087,0.1104545146226883,0.044437408447265625,0,0,0
83964348,d4:22:cd:00:30:92,0.47155189514160156,-0.41305112838745117,0.5147810578346252,-0.5848318338394165,0.2645193040370941,-0.004080899525433779,0.05515766143798828,0,0,0
83981015,d4:22:cd:00:30:92,0.47009921073913574,-0.4137572646141052,0.5164411067962646,-0.5840379595756531,0.5316009521484375,0.012429779395461082,0.044724464416503906,0,0,0
83997682,d4:22:cd:00:30:92,0.46921420097351074,-0.4149501919746399,0.5181986093521118,-0.5823442339897156,0.227278932929039,-0.11261498928070068,0.038718223571777344,0,0,0
84014349,d4:22:cd:00:30:92,0.46847617626190186,-0.4165009558200836,0.5199765563011169,-0.5802425742149353,0.40253588557243347,-0.15521812438964844,0.039032936096191406,0,0,0
84031016,d4:22:cd:00:30:92,0.46733030676841736,-0.4183788001537323,0.5215634703636169,-0.5783886313438416,0.633500337600708,-0.06890479475259781,0.05076885223388672,0,0,0
84047683,d4:22:cd:00:30:92,0.46608370542526245,-0.4201662242412567,0.5236847996711731,-0.5761775970458984,0.09114836156368256,0.08322057873010635,0.026991844177246094,0,0,0
84064350,d4:22:cd:00:30:92,0.46458613872528076,-0.42100173234939575,0.525469958782196,-0.5751510262489319,0.0511200949549675,0.15927958488464355,0.03270244598388672,0,0,0
84081017,d4:22:cd:00:30:92,0.46311745047569275,-0.4213699996471405,0.5267782211303711,-0.5748690962791443,0.32347866892814636,-0.15677064657211304,0.044647216796875,0,0,0
84097684,d4:22:cd:00:30:92,0.46226897835731506,-0.4221913814544678,0.5280222296714783,-0.5738069415092468,0.42156511545181274,-0.12361808866262436,0.033702850341796875,0,0,0
84114351,d4:22:cd:00:30:92,0.4613150954246521,-0.42294302582740784,0.5285568833351135,-0.5735288858413696,0.39530256390571594,-0.10446213185787201,0.03201103210449219,0,0,0
84131018,d4:22:cd:00:30:92,0.4606189429759979,-0.4240391254425049,0.529394268989563,-0.5725056529045105,0.35452553629875183,-0.12543681263923645,0.042995452880859375,0,0,0
84147685,d4:22:cd:00:30:92,0.4602104723453522,-0.4250105321407318,0.5300430059432983,-0.5715128183364868,0.29066339135169983,0.00506703881546855,0.03705787658691406,0,0,0
84164352,d4:22:cd:00:30:92,0.4595355689525604,-0.42535170912742615,0.5310345888137817,-0.570881187915802,0.21212229132652283,0.091135174036026,0.03187370300292969,0,0,0
84181019,d4:22:cd:00:30:92,0.45882683992385864,-0.4255219101905823,0.5323306918144226,-0.5701167583465576,0.2541440725326538,-0.12364714592695236,0.037985801696777344,0,0,0
84197686,d4:22:cd:00:30:92,0.4585535526275635,-0.42629122734069824,0.5330567955970764,-0.5690826177597046,0.45211732387542725,-0.12928034365177155,0.041146278381347656,0,0,0
84214353,d4:22:cd:00:30:92,0.4584009349346161,-0.427401065826416,0.5336499810218811,-0.5678156018257141,0.2998064160346985,0.024948516860604286,0.021694183349609375,0,0,0
84231020,d4:22:cd:00:30:92,0.4586750566959381,-0.4282792806625366,0.5339967608451843,-0.5666051506996155,0.24425294995307922,-0.055179089307785034,0.02931499481201172,0,0,0
84247687,d4:22:cd:00:30:92,0.4588296413421631,-0.42824336886405945,0.5342009663581848,-0.566314697265625,0.0751262828707695,0.1619313359260559,0.03279876708984375,0,0,0
84264354,d4:22:cd:00:30:92,0.4588533341884613,-0.427471786737442,0.5343989729881287,-0.5666916966438293,0.12401571869850159,0.03996076434850693,0.04167366027832031,0,0,0
84281021,d4:22:cd:00:30:92,0.4588491916656494,-0.4267529249191284,0.5346265435218811,-0.567021906375885,0.387917697429657,0.05173386260867119,0.041617393493652344,0,0,0
84297688,d4:22:cd:00:30:92,0.45843249559402466,-0.42638227343559265,0.5350323915481567,-0.5672550201416016,0.3844181299209595,-0.04508591443300247,0.02718830108642578,0,0,0
84314355,d4:22:cd:00:30:92,0.45863908529281616,-0.4264298677444458,0.5351447463035583,-0.5669461488723755,0.2536637485027313,-0.027239300310611725,0.03812217712402344,0,0,0
84331022,d4:22:cd:00:30:92,0.4583936035633087,-0.4263174831867218,0.5354381203651428,-0.5669523477554321,0.27130359411239624,-0.0009423306328244507,0.03447532653808594,0,0,0
84347689,d4:22:cd:00:30:92,0.45797199010849,-0.42529377341270447,0.5352148413658142,-0.568271279335022,0.12496452778577805,0.07906971871852875,0.029074668884277344,0,0,0
84364356,d4:22:cd:00:30:92,0.457400918006897,-0.42414340376853943,0.5348259806632996,-0.5699544548988342,0.3940184712409973,-0.03555666282773018,0.03336334228515625,0,0,0
84381023,d4:22:cd:00:30:92,0.45649999380111694,-0.4239017963409424,0.5349946022033691,-0.5706978440284729,0.5501226186752319,-0.10036692768335342,0.057127952575683594,0,0,0
84397690,d4:22:cd:00:30:92,0.45577871799468994,-0.42432400584220886,0.5355082750320435,-0.5704788565635681,0.3277631998062134,-0.09627172350883484,0.05051612854003906,0,0,0
84414357,d4:22:cd:00:30:92,0.45523157715797424,-0.42462292313575745,0.5361196398735046,-0.5701187252998352,0.28682008385658264,-0.09996460378170013,0.040996551513671875,0,0,0
84431024,d4:22:cd:00:30:92,0.4550573527812958,-0.4250773787498474,0.5368476510047913,-0.5692334771156311,0.35999688506126404,-0.07676328718662262,0.047354698181152344,0,0,0
84447691,d4:22:cd:00:30:92,0.45499762892723083,-0.426052451133728,0.5376830697059631,-0.5677620768547058,0.3865272104740143,-0.09008555859327316,0.019164085388183594,0,0,0
84464358,d4:22:cd:00:30:92,0.4548736810684204,-0.42757344245910645,0.5386981964111328,-0.5657519698143005,0.4015320837497711,-0.11859038472175598,0.037657737731933594,0,0,0
84481025,d4:22:cd:00:30:92,0.45480185747146606,-0.4289097189903259,0.5395282506942749,-0.5640045404434204,0.21784958243370056,-0.0745641440153122,0.04130840301513672,0,0,0
84497692,d4:22:cd:00:30:92,0.4545983076095581,-0.429522305727005,0.5400528311729431,-0.5631998777389526,0.1842021644115448,0.07023604214191437,0.03453350067138672,0,0,0
84514359,d4:22:cd:00:30:92,0.454232394695282,-0.4295397102832794,0.540672242641449,-0.5628876090049744,0.28303220868110657,-0.006399846635758877,0.037334442138671875,0,0,0
84531026,d4:22:cd:00:30:92,0.45367318391799927,-0.42957931756973267,0.5414258241653442,-0.5625838041305542,0.37839359045028687,-0.013866744004189968,0.03207206726074219,0,0,0
84547693,d4:22:cd:00:30:92,0.45305484533309937,-0.4297453761100769,0.5421196222305298,-0.5622868537902832,0.2964096963405609,0.028229685500264168,0.026611328125,0,0,0
84564360,d4:22:cd:00:30:92,0.4525980055332184,-0.42996662855148315,0.5428048372268677,-0.5618245005607605,0.3232502341270447,-0.09708710014820099,0.036093711853027344,0,0,0
84581027,d4:22:cd:00:30:92,0.45273298025131226,-0.4302261173725128,0.5430521965026855,-0.5612778663635254,0.2173035442829132,-0.06877024471759796,0.03643226623535156,0,0,0
84597694,d4:22:cd:00:30:92,0.4531136751174927,-0.4303627610206604,0.5430336594581604,-0.560883641242981,0.3253859281539917,-0.07267635315656662,0.03629302978515625,0,0,0
84614361,d4:22:cd:00:30:92,0.45312124490737915,-0.43062111735343933,0.5432512760162354,-0.5604685544967651,0.3979513943195343,-0.014788287691771984,0.03200340270996094,0,0,0
84631028,d4:22:cd:00:30:92,0.45278337597846985,-0.43093612790107727,0.5435711145401001,-0.5601890087127686,0.3045860230922699,0.03894221410155296,0.03929615020751953,0,0,0
84647695,d4:22:cd:00:30:92,0.45211419463157654,-0.43092426657676697,0.5438894629478455,-0.5604295134544373,0.2948571741580963,0.02927595004439354,0.03682994842529297,0,0,0
84664362,d4:22:cd:00:30:92,0.4514675736427307,-0.430931955575943,0.5442488193511963,-0.5605961680412292,0.33778396248817444,-0.04327814280986786,0.03698921203613281,0,0,0
84681029,d4:22:cd:00:30:92,0.45090001821517944,-0.43090882897377014,0.5446717143058777,-0.5606598258018494,0.31927797198295593,-0.06588893383741379,0.03987312316894531,0,0,0
84697696,d4:22:cd:00:30:92,0.45035111904144287,-0.4310171902179718,0.5450298190116882,-0.5606697797775269,0.3546544909477234,0.016309740021824837,0.026572227478027344,0,0,0
84714363,d4:22:cd:00:30:92,0.4496956765651703,-0.43123728036880493,0.5454164147377014,-0.5606507658958435,0.3329203128814697,-0.06321326643228531,0.03320789337158203,0,0,0
84731030,d4:22:cd:00:30:92,0.4490737318992615,-0.4314071834087372,0.5458117127418518,-0.5606338381767273,0.30921027064323425,-0.05777094513177872,0.04151630401611328,0,0,0
84747697,d4:22:cd:00:30:92,0.44887015223503113,-0.4314512610435486,0.5460715293884277,-0.5605100989341736,0.2903502583503723,-0.08361127972602844,0.04031848907470703,0,0,0
84764364,d4:22:cd:00:30:92,0.4489826560020447,-0.43141138553619385,0.5460870862007141,-0.5604353547096252,0.27540841698646545,-0.009764163754880428,0.031157493591308594,0,0,0
84781031,d4:22:cd:00:30:92,0.44918766617774963,-0.4310879707336426,0.5458171367645264,-0.5607828497886658,0.2812318205833435,-0.02015438675880432,0.02814483642578125,0,0,0
84797698,d4:22:cd:00:30:92,0.4492306411266327,-0.4303934574127197,0.5455617308616638,-0.5615300536155701,0.2750932574272156,-0.00840475782752037,0.02818775177001953,0,0,0
84814365,d4:22:cd:00:30:92,0.449555367231369,-0.4296171963214874,0.5451155304908752,-0.5622971653938293,0.3260374665260315,-0.06243901327252388,0.035780906677246094,0,0,0
84831032,d4:22:cd:00:30:92,0.44986769556999207,-0.42935749888420105,0.5449009537696838,-0.5624536871910095,0.45628002285957336,-0.08480126410722733,0.026045799255371094,0,0,0
84847699,d4:22:cd:00:30:92,0.45013299584388733,-0.42937958240509033,0.5448412895202637,-0.5622823238372803,0.29127201437950134,-0.032826900482177734,0.020219802856445312,0,0,0
84864366,d4:22:cd:00:30:92,0.4505796432495117,-0.429149866104126,0.5446017980575562,-0.5623320937156677,0.25151845812797546,-0.030934639275074005,0.01680469512939453,0,0,0
84881033,d4:22:cd:00:30:92,0.4515041708946228,-0.42907533049583435,0.5440583229064941,-0.5621735453605652,0.3237064480781555,-0.04898800328373909,0.04749870300292969,0,0,0
84897700,d4:22:cd:00:30:92,0.451901376247406,-0.42895564436912537,0.543769896030426,-0.5622246861457825,0.3723064363002777,0.01654420606791973,0.02866649627685547,0,0,0
84914367,d4:22:cd:00:30:92,0.45196548104286194,-0.4291113615036011,0.5438157320022583,-0.562009871006012,0.4325824975967407,-0.07626955211162567,0.04865837097167969,0,0,0
84931034,d4:22:cd:00:30:92,0.45171064138412476,-0.4296776056289673,0.5442535281181335,-0.5613580942153931,0.3933369815349579,-0.01925988867878914,0.04644298553466797,0,0,0
84947701,d4:22:cd:00:30:92,0.451408714056015,-0.4303082823753357,0.544740617275238,-0.5606449842453003,0.2966935634613037,-0.03621714562177658,0.033400535583496094,0,0,0
84964368,d4:22:cd:00:30:92,0.45100095868110657,-0.430865615606308,0.5453147292137146,-0.5599867105484009,0.3670172095298767,-0.06030580773949623,0.02103900909423828,0,0,0
84981035,d4:22:cd:00:30:92,0.4504353106021881,-0.43159016966819763,0.5461345314979553,-0.5590842962265015,0.3782353401184082,-0.026061611250042915,0.030615806579589844,0,0,0
84997702,d4:22:cd:00:30:92,0.4495616853237152,-0.43239471316337585,0.5471399426460266,-0.558181881904602,0.31287097930908203,-0.07493383437395096,0.028565406799316406,0,0,0
85014369,d4:22:cd:00:30:92,0.4493156373500824,-0.43289706110954285,0.547723650932312,-0.5574176907539368,0.21730801463127136,-0.027427945286035538,0.030043601989746094,0,0,0
85031036,d4:22:cd:00:30:92,0.4491463303565979,-0.4330613315105438,0.5480793714523315,-0.5570768713951111,0.29480063915252686,-0.013936256058514118,0.04037666320800781,0,0,0
85047703,d4:22:cd:00:30:92,0.4489065110683441,-0.43311578035354614,0.548324465751648,-0.5569867491722107,0.34331390261650085,-0.005457962863147259,0.041584014892578125,0,0,0
85064370,d4:22:cd:00:30:92,0.44864681363105774,-0.4330675005912781,0.548516035079956,-0.5570447444915771,0.32363468408584595,-0.0672769546508789,0.04433631896972656,0,0,0
85081037,d4:22:cd:00:30:92,0.4486757814884186,-0.43314236402511597,0.5487875938415527,-0.5566956996917725,0.38312870264053345,-0.10465927422046661,0.020575523376464844,0,0,0
85097704,d4:22:cd:00:30:92,0.4486422538757324,-0.43303945660591125,0.5491204261779785,-0.556474506855011,0.2737879455089569,0.023298989981412888,0.03303718566894531,0,0,0
85114371,d4:22:cd:00:30:92,0.44847339391708374,-0.43252840638160706,0.5490991473197937,-0.5570288300514221,0.28099578619003296,-0.0019923944491893053,0.035363197326660156,0,0,0
85131038,d4:22:cd:00:30:92,0.4485231041908264,-0.4322414994239807,0.5490140318870544,-0.5572950839996338,0.38093313574790955,-0.10581259429454803,0.05145835876464844,0,0,0
85147705,d4:22:cd:00:30:92,0.4485180377960205,-0.43223726749420166,0.5491394400596619,-0.5571788549423218,0.3954339921474457,-0.06768620759248734,0.038474082946777344,0,0,0
85164372,d4:22:cd:00:30:92,0.44866326451301575,-0.4323764443397522,0.5493276119232178,-0.5567684173583984,0.32726365327835083,-0.03733381628990173,0.022768020629882812,0,0,0
85181039,d4:22:cd:00:30:92,0.44866490364074707,-0.4322573244571686,0.5493151545524597,-0.5568720102310181,0.2770250737667084,-0.0021823805291205645,0.03837871551513672,0,0,0
85197706,d4:22:cd:00:30:92,0.4487484395503998,-0.43181145191192627,0.5492121577262878,-0.5572519302368164,0.3008781671524048,-0.06612742692232132,0.03970623016357422,0,0,0
85214373,d4:22:cd:00:30:92,0.44870591163635254,-0.43127480149269104,0.5491712689399719,-0.5577418804168701,0.38215240836143494,-0.05300542712211609,0.027118682861328125,0,0,0
85231040,d4:22:cd:00:30:92,0.4485241174697876,-0.43101218342781067,0.5492010712623596,-0.5580617189407349,0.3871787488460541,-0.03934476152062416,0.026929855346679688,0,0,0
85247707,d4:22:cd:00:30:92,0.4483270049095154,-0.43101751804351807,0.5492987036705017,-0.5581200122833252,0.3760455846786499,-0.054832421243190765,0.02460956573486328,0,0,0
85264374,d4:22:cd:00:30:92,0.4482121467590332,-0.431024968624115,0.5493066906929016,-0.5581986308097839,0.2940916419029236,-0.0355195626616478,0.03021526336669922,0,0,0
85281041,d4:22:cd:00:30:92,0.448170006275177,-0.4307180643081665,0.5491458177566528,-0.5586274266242981,0.27809616923332214,0.016368525102734566,0.035834312438964844,0,0,0
85297708,d4:22:cd:00:30:92,0.44811418652534485,-0.43025150895118713,0.5488057136535645,-0.559365451335907,0.3183767795562744,-0.04832104220986366,0.03573322296142578,0,0,0
85314375,d4:22:cd:00:30:92,0.44812726974487305,-0.4297873079776764,0.5485879182815552,-0.5599251985549927,0.3437674045562744,-0.06721235811710358,0.04065132141113281,0,0,0
85331042,d4:22:cd:00:30:92,0.44835153222084045,-0.42940714955329895,0.5483977794647217,-0.5602235198020935,0.34033849835395813,-0.10241296887397766,0.03799629211425781,0,0,0
85347709,d4:22:cd:00:30:92,0.4485345780849457,-0.42913928627967834,0.5482500195503235,-0.5604267716407776,0.3504544496536255,-0.02783496305346489,0.02508544921875,0,0,0
85364376,d4:22:cd:00:30:92,0.4486587643623352,-0.4290448725223541,0.5480876564979553,-0.5605586767196655,0.3628773093223572,-0.032233696430921555,0.022611618041992188,0,0,0
85381043,d4:22:cd:00:30:92,0.44850364327430725,-0.4290362000465393,0.5480905175209045,-0.5606864094734192,0.38381487131118774,-0.05407717078924179,0.03271675109863281,0,0,0
85397710,d4:22:cd:00:30:92,0.44840022921562195,-0.42933106422424316,0.5483352541923523,-0.5603040456771851,0.38695502281188965,-0.06962472945451736,0.04410266876220703,0,0,0
85414377,d4:22:cd:00:30:92,0.4480545222759247,-0.42963922023773193,0.5486599206924438,-0.5600264668464661,0.3041539788246155,-0.01710343547165394,0.025568008422851562,0,0,0
85431044,d4:22:cd:00:30:92,0.4477063715457916,-0.42979902029037476,0.5489487051963806,-0.5598992705345154,0.31444069743156433,-0.0507899671792984,0.03014373779296875,0,0,0
85447711,d4:22:cd:00:30:92,0.4473930597305298,-0.43005117774009705,0.5493044257164001,-0.5596073269844055,0.37344253063201904,-0.04513866454362869,0.03570556640625,0,0,0
85464378,d4:22:cd:00:30:92,0.44679662585258484,-0.43047845363616943,0.5499221086502075,-0.5591483116149902,0.37060683965682983,-0.039480432868003845,0.04953956604003906,0,0,0
85481045,d4:22:cd:00:30:92,0.4463600218296051,-0.4307086765766144,0.5503345131874084,-0.5589140057563782,0.2312789112329483,-0.030307909473776817,0.03404045104980469,0,0,0
85497712,d4:22:cd:00:30:92,0.44601893424987793,-0.43061044812202454,0.5505720376968384,-0.5590280294418335,0.3007968068122864,-0.06807847321033478,0.029908180236816406,0,0,0
85514379,d4:22:cd:00:30:92,0.44606563448905945,-0.43063902854919434,0.5506458282470703,-0.5588960647583008,0.33901774883270264,-0.05250341817736626,0.028837203979492188,0,0,0
85531046,d4:22:cd:00:30:92,0.44605833292007446,-0.430677592754364,0.5507131814956665,-0.5588058233261108,0.33993637561798096,-0.041780829429626465,0.03841590881347656,0,0,0
85547713,d4:22:cd:00:30:92,0.44590383768081665,-0.4304366707801819,0.5507455468177795,-0.5590826869010925,0.29048973321914673,-0.028637820854783058,0.029369354248046875,0,0,0
85564380,d4:22:cd:00:30:92,0.4457681477069855,-0.43001413345336914,0.5506631135940552,-0.5595970153808594,0.3124324381351471,-0.05036305636167526,0.04202842712402344,0,0,0
85581047,d4:22:cd:00:30:92,0.44559580087661743,-0.4296603500843048,0.5506761074066162,-0.5599931478500366,0.35832077264785767,-0.039074983447790146,0.03033924102783203,0,0,0
85597714,d4:22:cd:00:30:92,0.4453274607658386,-0.4291531443595886,0.5506764650344849,-0.560594916343689,0.2978091239929199,-0.028781093657016754,0.03126811981201172,0,0,0
85614381,d4:22:cd:00:30:92,0.44511690735816956,-0.4283897876739502,0.5506053566932678,-0.5614153742790222,0.29654067754745483,-0.03542613238096237,0.02372455596923828,0,0,0
85631048,d4:22:cd:00:30:92,0.4451773762702942,-0.4280356466770172,0.5503829121589661,-0.561855137348175,0.4313766658306122,-0.07810012251138687,0.02768230438232422,0,0,0
85647715,d4:22:cd:00:30:92,0.4449784755706787,-0.4282653033733368,0.550501823425293,-0.5617212057113647,0.39653119444847107,-0.03223682567477226,0.03719806671142578,0,0,0
85664382,d4:22:cd:00:30:92,0.4446913003921509,-0.42855915427207947,0.5506832599639893,-0.5615468621253967,0.31440627574920654,-0.06037777662277222,0.04277324676513672,0,0,0
85681049,d4:22:cd:00:30:92,0.4444686472415924,-0.42869654297828674,0.5510219931602478,-0.5612857341766357,0.3408328890800476,-0.11311409622430801,0.038054466247558594,0,0,0
85697716,d4:22:cd:00:30:92,0.4438924491405487,-0.4290575087070465,0.5517981052398682,-0.5607032775878906,0.44998612999916077,-0.046349212527275085,0.02788543701171875,0,0,0
85714383,d4:22:cd:00:30:92,0.44318994879722595,-0.4294261336326599,0.5527511835098267,-0.5600376725196838,0.3300980031490326,-0.06543543189764023,0.028555870056152344,0,0,0
85731050,d4:22:cd:00:30:92,0.44254764914512634,-0.43002957105636597,0.5537131428718567,-0.5591314435005188,0.38158711791038513,-0.05687957629561424,0.03141975402832031,0,0,0
85747717,d4:22:cd:00:30:92,0.4419320225715637,-0.430868923664093,0.5546995401382446,-0.557993471622467,0.3520825207233429,-0.06267906725406647,0.04198455810546875,0,0,0
85764384,d4:22:cd:00:30:92,0.4412126839160919,-0.431725412607193,0.5556403994560242,-0.5569636225700378,0.33316102623939514,-0.008691525086760521,0.03584480285644531,0,0,0
85781051,d4:22:cd:00:30:92,0.44057023525238037,-0.4324333965778351,0.5562534928321838,-0.5563104152679443,0.2490808218717575,-0.013096070848405361,0.04117012023925781,0,0,0
85797718,d4:22:cd:00:30:92,0.4401969313621521,-0.43262624740600586,0.5564390420913696,-0.5562704205513,0.18732687830924988,-0.0180596224963665,0.03537559509277344,0,0,0
85814385,d4:22:cd:00:30:92,0.4402235448360443,-0.4327048659324646,0.5564002394676208,-0.5562271475791931,0.3728598356246948,-0.09360521286725998,0.033522605895996094,0,0,0
85831052,d4:22:cd:00:30:92,0.4403080940246582,-0.43276166915893555,0.5564327836036682,-0.5560836791992188,0.32094046473503113,-0.043083686381578445,0.02752971649169922,0,0,0
85847719,d4:22:cd:00:30:92,0.4404210150241852,-0.43241387605667114,0.556276261806488,-0.5564208626747131,0.24299880862236023,-0.008304623886942863,0.042664527893066406,0,0,0
85864386,d4:22:cd:00:30:92,0.44079363346099854,-0.4319860637187958,0.5558187365531921,-0.5569155216217041,0.3590196967124939,-0.05719204992055893,0.02197742462158203,0,0,0
85881053,d4:22:cd:00:30:92,0.4409525394439697,-0.4318270981311798,0.5556527972221375,-0.5570781230926514,0.437011182308197,-0.06581272184848785,0.03749656677246094,0,0,0
85897720,d4:22:cd:00:30:92,0.4410805404186249,-0.43189698457717896,0.5555531978607178,-0.5570221543312073,0.35009682178497314,-0.05667439103126526,0.02180767059326172,0,0,0
85914387,d4:22:cd:00:30:92,0.4411048889160156,-0.4319411516189575,0.5555762052536011,-0.55694580078125,0.38524335622787476,-0.07483682781457901,0.02429485321044922,0,0,0
85931054,d4:22:cd:00:30:92,0.44116345047950745,-0.43211501836776733,0.5557612180709839,-0.5565797090530396,0.3823687434196472,-0.088131383061409,0.041543006896972656,0,0,0
85947721,d4:22:cd:00:30:92,0.4410363435745239,-0.4323115944862366,0.5561019778251648,-0.5561874508857727,0.36988309025764465,-0.027729464694857597,0.02522563934326172,0,0,0
85964388,d4:22:cd:00:30:92,0.44085928797721863,-0.4325743615627289,0.5563646554946899,-0.5558605194091797,0.35321417450904846,-0.04348466917872429,0.027070045471191406,0,0,0
85981055,d4:22:cd:00:30:92,0.44071096181869507,-0.432971715927124,0.5566633343696594,-0.5553695559501648,0.359758198261261,-0.05035366863012314,0.032494544982910156,0,0,0
85997722,d4:22:cd:00:30:92,0.44035080075263977,-0.43330684304237366,0.5571476221084595,-0.5549081563949585,0.35807937383651733,-0.07866359502077103,0.03565692901611328,0,0,0
86014389,d4:22:cd:00:30:92,0.440021276473999,-0.43376028537750244,0.5577158331871033,-0.5542439818382263,0.3465917110443115,-0.058511219918727875,0.02196025848388672,0,0,0
86031056,d4:22:cd:00:30:92,0.43984782695770264,-0.43427345156669617,0.5581139326095581,-0.553578794002533,0.33398333191871643,-0.0499730259180069,0.030519485473632812,0,0,0
86047723,d4:22:cd:00:30:92,0.43976113200187683,-0.4344328045845032,0.5584890246391296,-0.5531442165374756,0.22851026058197021,-0.06559188663959503,0.026006698608398438,0,0,0
86064390,d4:22:cd:00:30:92,0.4400569200515747,-0.43418020009994507,0.5585463047027588,-0.5530491471290588,0.2508682608604431,-0.05020168051123619,0.03487110137939453,0,0,0
86081057,d4:22:cd:00:30:92,0.4404393434524536,-0.433705598115921,0.5583192706108093,-0.5533463954925537,0.27511316537857056,0.0022467521484941244,0.028656005859375,0,0,0
86097724,d4:22:cd:00:30:92,0.4408116936683655,-0.43317756056785583,0.5579613447189331,-0.5538244247436523,0.34961941838264465,-0.054966527968645096,0.04126453399658203,0,0,0
86114391,d4:22:cd:00:30:92,0.44120827317237854,-0.4325484335422516,0.5574483275413513,-0.5545164942741394,0.25005823373794556,-0.03457745537161827,0.037049293518066406,0,0,0
86131058,d4:22:cd:00:30:92,0.4421561062335968,-0.43148019909858704,0.5563341379165649,-0.555711567401886,0.11332866549491882,0.006078434642404318,0.03148937225341797,0,0,0
86147725,d4:22:cd:00:30:92,0.44352689385414124,-0.42977577447891235,0.5545580983161926,-0.5577116012573242,0.18258549273014069,-0.02064678631722927,0.035846710205078125,0,0,0
86164392,d4:22:cd:00:30:92,0.44496795535087585,-0.4276216924190521,0.5524008870124817,-0.5603539943695068,0.23811259865760803,0.0035111650358885527,0.02607440948486328,0,0,0
86181059,d4:22:cd:00:30:92,0.44655531644821167,-0.425162136554718,0.5499714016914368,-0.5633447766304016,0.22884686291217804,-0.028538133949041367,0.03982067108154297,0,0,0
86197726,d4:22:cd:00:30:92,0.4484299421310425,-0.42256811261177063,0.5470167994499207,-0.5666739344596863,0.19336485862731934,0.017056496813893318,0.034766197204589844,0,0,0
86214393,d4:22:cd:00:30:92,0.45091795921325684,-0.42028096318244934,0.5433692932128906,-0.5699007511138916,0.06526734679937363,0.0003913711989298463,0.01764965057373047,0,0,0
86231060,d4:22:cd:00:30:92,0.4538973867893219,-0.41825616359710693,0.5389631390571594,-0.5731995701789856,0.23669776320457458,-0.08314502984285355,0.011932373046875,0,0,0
86247727,d4:22:cd:00:30:92,0.4572952091693878,-0.4158552289009094,0.534553587436676,-0.5763661861419678,0.36904245615005493,-0.13796694576740265,0.03975486755371094,0,0,0
86264394,d4:22:cd:00:30:92,0.4584656357765198,-0.41452640295028687,0.532497763633728,-0.5782934427261353,0.3047715425491333,-0.34362053871154785,0.1195211410522461,0,0,0
86281061,d4:22:cd:00:30:92,0.459573358297348,-0.41433754563331604,0.5305318236351013,-0.5793555974960327,-0.050452686846256256,-0.07639460265636444,0.042888641357421875,0,0,0
86297728,d4:22:cd:00:30:92,0.46055498719215393,-0.4133986532688141,0.5285645127296448,-0.5810423493385315,-0.04013666883111,0.03718059882521629,0.019796371459960938,0,0,0
86314395,d4:22:cd:00:30:92,0.46210724115371704,-0.4112733006477356,0.5258767604827881,-0.5837506651878357,0.45420917868614197,0.08151830732822418,0.010552406311035156,0,0,0
86331062,d4:22:cd:00:30:92,0.46337890625,-0.4095272421836853,0.5234843492507935,-0.5861160159111023,0.3451607823371887,-0.17495141923427582,0.06864070892333984,0,0,0
86347729,d4:22:cd:00:30:92,0.4641593396663666,-0.4092947542667389,0.5216309428215027,-0.5873117446899414,0.22481469810009003,-0.06694503873586655,0.04179573059082031,0,0,0
86364396,d4:22:cd:00:30:92,0.4651243984699249,-0.40841585397720337,0.5192546844482422,-0.5892625451087952,0.4469112455844879,0.0555662140250206,0.024468421936035156,0,0,0
86381063,d4:22:cd:00:30:92,0.4667706787586212,-0.4071798026561737,0.5165217518806458,-0.5912149548530579,0.2754940092563629,-0.017502181231975555,0.041375160217285156,0,0,0
86397730,d4:22:cd:00:30:92,0.46819669008255005,-0.4058351218700409,0.5139167308807373,-0.5932785272598267,0.009815124794840813,0.034112099558115005,0.051636695861816406,0,0,0
86414397,d4:22:cd:00:30:92,0.469522088766098,-0.40428730845451355,0.5113680958747864,-0.595486044883728,0.11916302889585495,0.1157265156507492,0.05202484130859375,0,0,0
86431064,d4:22:cd:00:30:92,0.470832496881485,-0.4026077687740326,0.5088783502578735,-0.5977177619934082,0.3788289725780487,0.020032795146107674,0.040477752685546875,0,0,0
86447731,d4:22:cd:00:30:92,0.47229528427124023,-0.4010466933250427,0.5062418580055237,-0.5998481512069702,0.2973182797431946,0.09547601640224457,0.012146949768066406,0,0,0
86464398,d4:22:cd:00:30:92,0.4738894999027252,-0.39931073784828186,0.5031368136405945,-0.6023564338684082,0.3002440631389618,0.10788221657276154,0.04750251770019531,0,0,0
86481065,d4:22:cd:00:30:92,0.47556671500205994,-0.39741766452789307,0.49973931908607483,-0.6051084995269775,0.1374497413635254,0.06976509839296341,0.014101028442382812,0,0,0
86497732,d4:22:cd:00:30:92,0.47822073101997375,-0.39312589168548584,0.4934476613998413,-0.6109554171562195,0.4505542814731598,-0.043239474296569824,-0.057338714599609375,0,0,0
86514399,d4:22:cd:00:30:92,0.4800231456756592,-0.39070817828178406,0.48890170454978943,-0.6147358417510986,0.07025124132633209,0.14274543523788452,0.0847625732421875,0,0,0
86531066,d4:22:cd:00:30:92,0.48175978660583496,-0.38739025592803955,0.4837128520011902,-0.6195629835128784,0.2757452428340912,0.07114584743976593,-0.011631965637207031,0,0,0
86547733,d4:22:cd:00:30:92,0.48423483967781067,-0.3836749494075775,0.4776986539363861,-0.6245914101600647,0.3843788206577301,-0.041606489568948746,0.037445068359375,0,0,0
86564400,d4:22:cd:00:30:92,0.48732665181159973,-0.38000279664993286,0.4717830419540405,-0.6289130449295044,0.19682639837265015,-0.07797852903604507,0.01885986328125,0,0,0
86581067,d4:22:cd:00:30:92,0.49053478240966797,-0.37560051679611206,0.4655889570713043,-0.6336615681648254,0.03905486688017845,-0.12710556387901306,0.06326770782470703,0,0,0
86597734,d4:22:cd:00:30:92,0.4937344789505005,-0.37093183398246765,0.4597358703613281,-0.6381841897964478,0.02502361685037613,0.014612830244004726,-0.010510444641113281,0,0,0
86614401,d4:22:cd:00:30:92,0.49722081422805786,-0.36589354276657104,0.45238083600997925,-0.6436188220977783,0.46965882182121277,-0.06618442386388779,-0.008532524108886719,0,0,0
86631068,d4:22:cd:00:30:92,0.5000907778739929,-0.36094409227371216,0.44514548778533936,-0.649210512638092,0.615527868270874,-0.18586421012878418,0.08094406127929688,0,0,0
86647735,d4:22:cd:00:30:92,0.5028861165046692,-0.35585615038871765,0.4391062259674072,-0.6539554595947266,0.26872068643569946,-0.08164961636066437,0.03489398956298828,0,0,0
86664402,d4:22:cd:00:30:92,0.5064247250556946,-0.3501598536968231,0.432704359292984,-0.6585507392883301,0.10746704041957855,-0.07905943691730499,-0.0015344619750976562,0,0,0
86681069,d4:22:cd:00:30:92,0.510371744632721,-0.3443657159805298,0.4256117343902588,-0.6631649732589722,0.1923932433128357,-0.0876622274518013,0.04640674591064453,0,0,0
86697736,d4:22:cd:00:30:92,0.5144893527030945,-0.3380141258239746,0.41756585240364075,-0.6683457493782043,0.07499440759420395,-0.09004845470190048,0.0017786026000976562,0,0,0
86714403,d4:22:cd:00:30:92,0.5188416838645935,-0.33132410049438477,0.40869325399398804,-0.6737933158874512,0.18046413362026215,-0.06734523922204971,0.0072021484375,0,0,0
86731070,d4:22:cd:00:30:92,0.5233933925628662,-0.3253014385700226,0.4002618193626404,-0.6782543659210205,0.49360981583595276,-0.16940739750862122,0.1278076171875,0,0,0
86747737,d4:22:cd:00:30:92,0.5273905396461487,-0.32013073563575745,0.3930372893810272,-0.681833803653717,0.48192209005355835,0.09829384833574295,0.1406383514404297,0,0,0
86764404,d4:22:cd:00:30:92,0.530587911605835,-0.31529954075813293,0.3869156837463379,-0.6850979328155518,0.4171382188796997,0.08115599304437637,0.08630180358886719,0,0,0
86781071,d4:22:cd:00:30:92,0.5334542393684387,-0.3103925585746765,0.38091281056404114,-0.6884682774543762,0.09986469149589539,0.0965312197804451,0.03461933135986328,0,0,0
86797738,d4:22:cd:00:30:92,0.5362922549247742,-0.30485108494758606,0.3747968077659607,-0.6920865774154663,0.12519250810146332,0.20468053221702576,-0.002315521240234375,0,0,0
86814405,d4:22:cd:00:30:92,0.5391377806663513,-0.2989703118801117,0.36830681562423706,-0.6959147453308105,0.3528818190097809,0.02102798782289028,0.055787086486816406,0,0,0
86831072,d4:22:cd:00:30:92,0.5420845150947571,-0.2942090332508087,0.36219075322151184,-0.6988586187362671,0.5927169919013977,-0.18301966786384583,0.14803218841552734,0,0,0
86847739,d4:22:cd:00:30:92,0.5454463958740234,-0.2901908755302429,0.3562353253364563,-0.7009807229042053,0.5136598348617554,0.23096466064453125,0.03643989562988281,0,0,0
86864406,d4:22:cd:00:30:92,0.5484904050827026,-0.28481072187423706,0.35014986991882324,-0.7038723826408386,0.42580682039260864,0.4295788109302521,-0.08234691619873047,0,0,0
86881073,d4:22:cd:00:30:92,0.5515208840370178,-0.2771094739437103,0.343366801738739,-0.707908570766449,0.23152823746204376,0.24720901250839233,-0.0941610336303711,0,0,0
86897740,d4:22:cd:00:30:92,0.5548151731491089,-0.26856738328933716,0.3356993496417999,-0.7122904658317566,-0.0864109992980957,-0.24772176146507263,0.03985118865966797,0,0,0
86914407,d4:22:cd:00:30:92,0.5585138201713562,-0.26126042008399963,0.326905220746994,-0.71619713306427,-0.4286961853504181,-0.6520980596542358,0.07303810119628906,0,0,0
86931074,d4:22:cd:00:30:92,0.5615677833557129,-0.2549499571323395,0.31845545768737793,-0.7198808193206787,-0.012347972951829433,-0.34488216042518616,0.2731809616088867,0,0,0
86947741,d4:22:cd:00:30:92,0.5650069713592529,-0.2491838037967682,0.30922532081604004,-0.7232249975204468,-0.2778792381286621,-0.10374130308628082,-0.09247112274169922,0,0,0
86964408,d4:22:cd:00:30:92,0.5690311193466187,-0.24153481423854828,0.2979329526424408,-0.7273930311203003,-0.44505733251571655,0.08397459983825684,-0.2591552734375,0,0,0
86981075,d4:22:cd:00:30:92,0.5739227533340454,-0.23078180849552155,0.28330197930336,-0.7328660488128662,-0.23688271641731262,0.21235083043575287,-0.3726654052734375,0,0,0
86997742,d4:22:cd:00:30:92,0.5783578157424927,-0.2177659273147583,0.2664158344268799,-0.7396640777587891,-0.1723683923482895,0.26181167364120483,-0.13995647430419922,0,0,0
87014409,d4:22:cd:00:30:92,0.5826791524887085,-0.20414425432682037,0.2479201853275299,-0.7465559840202332,0.22674226760864258,0.059586990624666214,-0.08834075927734375,0,0,0
87031076,d4:22:cd:00:30:92,0.5869022011756897,-0.18831662833690643,0.22814230620861053,-0.7536802291870117,0.4921281337738037,0.11356291174888611,-0.38959693908691406,0,0,0
87047743,d4:22:cd:00:30:92,0.5901724100112915,-0.1713555008172989,0.20880943536758423,-0.7607447504997253,0.780735433101654,-0.08311016112565994,0.3369941711425781,0,0,0
87064410,d4:22:cd:00:30:92,0.5924590229988098,-0.157478928565979,0.192282035946846,-0.7663031220436096,0.5350103378295898,-0.4523935616016388,0.4254474639892578,0,0,0
87081077,d4:22:cd:00:30:92,0.5956072211265564,-0.14543308317661285,0.17785002291202545,-0.7697211503982544,0.38320571184158325,-0.20356307923793793,0.22842884063720703,0,0,0
87097744,d4:22:cd:00:30:92,0.5977119207382202,-0.13358788192272186,0.16362929344177246,-0.773382306098938,0.09000565111637115,0.1105414628982544,-0.07265663146972656,0,0,0
87114411,d4:22:cd:00:30:92,0.5993673801422119,-0.12060217559337616,0.14948953688144684,-0.7770885825157166,0.14061887562274933,-0.21594586968421936,0.12833786010742188,0,0,0
87131078,d4:22:cd:00:30:92,0.6011034846305847,-0.10864841938018799,0.13556496798992157,-0.7800591588020325,0.07034321874380112,0.04395829141139984,0.2487325668334961,0,0,0
87147745,d4:22:cd:00:30:92,0.6016331315040588,-0.09852536022663116,0.12348952889442444,-0.7829946279525757,0.14025840163230896,0.02923918329179287,0.4078254699707031,0,0,0
87164412,d4:22:cd:00:30:92,0.602213978767395,-0.0896117091178894,0.11284524202346802,-0.7852224111557007,0.2284562736749649,-0.25677046179771423,0.08095455169677734,0,0,0
87181079,d4:22:cd:00:30:92,0.6026462316513062,-0.08078590035438538,0.10235585272312164,-0.7872830629348755,0.12974022328853607,-0.227945938706398,0.13627052307128906,0,0,0
87197746,d4:22:cd:00:30:92,0.6042346358299255,-0.07300235331058502,0.09194411337375641,-0.7881100177764893,0.0341416597366333,-0.20338818430900574,0.25504493713378906,0,0,0
87214413,d4:22:cd:00:30:92,0.6057519912719727,-0.06554295122623444,0.08168242126703262,-0.788731038570404,-0.17852504551410675,0.2846979796886444,0.006290435791015625,0,0,0
87231080,d4:22:cd:00:30:92,0.6059060096740723,-0.05720542371273041,0.0702749565243721,-0.7903587222099304,0.37568721175193787,0.17410323023796082,-0.0571441650390625,0,0,0
87247747,d4:22:cd:00:30:92,0.6056024432182312,-0.049210455268621445,0.059186067432165146,-0.7920359969139099,0.11502789705991745,0.13157400488853455,0.22626018524169922,0,0,0
87264414,d4:22:cd:00:30:92,0.6056656241416931,-0.04202134907245636,0.049496568739414215,-0.7930658459663391,0.3551274538040161,-0.40619418025016785,0.31447696685791016,0,0,0
87281081,d4:22:cd:00:30:92,0.6073072552680969,-0.035850945860147476,0.04026639088988304,-0.7926356196403503,-0.25629791617393494,-0.07967999577522278,0.0661153793334961,0,0,0
87297748,d4:22:cd:00:30:92,0.6098372936248779,-0.029037615284323692,0.031066667288541794,-0.7913850545883179,-0.1471797674894333,0.022422246634960175,0.3199443817138672,0,0,0
87314415,d4:22:cd:00:30:92,0.6100748181343079,-0.024142904207110405,0.025269800797104836,-0.7915727496147156,0.3596149682998657,0.22951729595661163,0.646794319152832,0,0,0
87331082,d4:22:cd:00:30:92,0.6098222732543945,-0.021174311637878418,0.022070689126849174,-0.7919479012489319,-0.13440044224262238,0.11884821951389313,0.2252635955810547,0,0,0
87347749,d4:22:cd:00:30:92,0.6099163889884949,-0.018372323364019394,0.01915685087442398,-0.7920210957527161,0.0231331717222929,0.062239717692136765,0.12174797058105469,0,0,0
87364416,d4:22:cd:00:30:92,0.6083412766456604,-0.01596236415207386,0.01589963585138321,-0.7933557629585266,-0.1197071373462677,0.4260497987270355,0.022248268127441406,0,0,0
87381083,d4:22:cd:00:30:92,0.6044033169746399,-0.013357598334550858,0.012021005153656006,-0.7964760065078735,0.11918040364980698,0.32809287309646606,0.048729896545410156,0,0,0
87397750,d4:22:cd:00:30:92,0.5997470021247864,-0.01159109827131033,0.00804104097187519,-0.8000655174255371,0.32383066415786743,0.19499114155769348,0.13452529907226562,0,0,0
87414417,d4:22:cd:00:30:92,0.5962051749229431,-0.009917085990309715,0.003762782784178853,-0.8027620315551758,0.21791274845600128,-0.26256394386291504,-0.03293418884277344,0,0,0
87431084,d4:22:cd:00:30:92,0.5960202217102051,-0.0066949003376066685,-0.001094514736905694,-0.8029407262802124,-0.24098339676856995,-0.350410521030426,0.05953216552734375,0,0,0
87447751,d4:22:cd:00:30:92,0.5974634289741516,-0.004117169417440891,-0.0030162117909640074,-0.8018800020217896,-0.4033271372318268,-0.5553925633430481,0.729374885559082,0,0,0
87464418,d4:22:cd:00:30:92,0.6006420850753784,-0.0027348347939550877,-0.003409261116757989,-0.7995062470436096,-0.31522566080093384,-0.17655408382415771,0.13398075103759766,0,0,0
87481085,d4:22:cd:00:30:92,0.604122519493103,-0.001676546293310821,-0.0037650680169463158,-0.796880841255188,-0.2696528434753418,0.16362398862838745,0.1703329086303711,0,0,0
87497752,d4:22:cd:00:30:92,0.6058210730552673,-0.0015356981894001365,-0.003908942453563213,-0.7955899238586426,-0.4474671185016632,0.0496741384267807,0.04476165771484375,0,0,0
87514419,d4:22:cd:00:30:92,0.6065452098846436,-0.00032469953293912113,-0.005714443512260914,-0.7950285077095032,-0.21260105073451996,0.10106769949197769,-0.008060455322265625,0,0,0
87531086,d4:22:cd:00:30:92,0.6068187952041626,-0.0001548734726384282,-0.006129123270511627,-0.7948166728019714,0.07069198042154312,-0.03948255255818367,0.2579307556152344,0,0,0
87547753,d4:22:cd:00:30:92,0.6074912548065186,-0.000028912643756484613,-0.0070475367829203606,-0.7942951917648315,-0.11887413263320923,-0.07400365173816681,0.095062255859375,0,0,0
87564420,d4:22:cd:00:30:92,0.610970675945282,0.00002874328311008867,-0.009340574964880943,-0.7915982604026794,-0.16091464459896088,-0.12497510761022568,0.009312629699707031,0,0,0
87581087,d4:22:cd:00:30:92,0.6145727634429932,-0.00009135091386269778,-0.010746750980615616,-0.7887870073318481,0.02122737094759941,0.05015677586197853,0.21820640563964844,0,0,0
87597754,d4:22:cd:00:30:92,0.6176893711090088,-0.0004928631242364645,-0.01086965948343277,-0.7863472104072571,-0.008229062892496586,0.07966387271881104,0.16267681121826172,0,0,0
87614421,d4:22:cd:00:30:92,0.619847297668457,-0.003538052551448345,-0.009961179457604885,-0.7846512794494629,0.1545327603816986,0.10162082314491272,0.34815120697021484,0,0,0
87631088,d4:22:cd:00:30:92,0.6213318109512329,-0.00655396981164813,-0.005053970031440258,-0.7835038304328918,-0.23412199318408966,-0.15443386137485504,-0.056860923767089844,0,0,0
87647755,d4:22:cd:00:30:92,0.6222203373908997,-0.006572930607944727,-0.005209299735724926,-0.7827972173690796,-0.28842693567276,0.2803494930267334,-0.1519012451171875,0,0,0
87664422,d4:22:cd:00:30:92,0.6227033138275146,-0.006315201986581087,-0.007003678008913994,-0.7824012637138367,0.027434203773736954,-0.06144232675433159,0.2172689437866211,0,0,0
87681089,d4:22:cd:00:30:92,0.6227507591247559,-0.006476078648120165,-0.006202742923051119,-0.7823690176010132,-0.09970077872276306,0.05215998739004135,0.06837177276611328,0,0,0
87697756,d4:22:cd:00:30:92,0.6227920651435852,-0.00642617279663682,-0.006619549356400967,-0.7823331356048584,-0.06950999051332474,0.017401156947016716,0.09797382354736328,0,0,0
87714423,d4:22:cd:00:30:92,0.6228411793708801,-0.006447185296565294,-0.006473217625170946,-0.7822949886322021,-0.07616688311100006,-0.0005002010148018599,0.0993337631225586,0,0,0
87731090,d4:22:cd:00:30:92,0.6228911280632019,-0.0064242808148264885,-0.006568773649632931,-0.7822545766830444,-0.08575265854597092,0.011310496367514133,0.09267997741699219,0,0,0
87747757,d4:22:cd:00:30:92,0.6229407787322998,-0.006422827951610088,-0.006542117800563574,-0.7822152376174927,-0.06701677292585373,0.021327493712306023,0.1027059555053711,0,0,0
87764424,d4:22:cd:00:30:92,0.6229871511459351,-0.006409450899809599,-0.006572176236659288,-0.7821781635284424,-0.07736057043075562,0.014947585761547089,0.09936809539794922,0,0,0
87781091,d4:22:cd:00:30:92,0.6230261325836182,-0.006391989067196846,-0.006586798932403326,-0.7821471095085144,-0.07159566879272461,0.025615740567445755,0.10641002655029297,0,0,0
87797758,d4:22:cd:00:30:92,0.6230797171592712,-0.0063815247267484665,-0.006597296334803104,-0.7821045517921448,-0.0741509348154068,0.021779675036668777,0.099517822265625,0,0,0
87814425,d4:22:cd:00:30:92,0.6231231093406677,-0.006370282266288996,-0.006609512027353048,-0.782069981098175,-0.07840504497289658,0.01342787966132164,0.09774303436279297,0,0,0
87831092,d4:22:cd:00:30:92,0.6231594085693359,-0.006360172759741545,-0.0066245123744010925,-0.782041072845459,-0.08005763590335846,0.0018824645085260272,0.09362125396728516,0,0,0
87847759,d4:22:cd:00:30:92,0.6232089996337891,-0.00635224673897028,-0.00664012786000967,-0.7820014357566833,-0.08413473516702652,0.021140161901712418,0.09943675994873047,0,0,0
87864426,d4:22:cd:00:30:92,0.6232558488845825,-0.00635289354249835,-0.00665639853104949,-0.7819640040397644,-0.08618570119142532,0.014544735662639141,0.10249996185302734,0,0,0
87881093,d4:22:cd:00:30:92,0.6233081817626953,-0.006333810742944479,-0.006660619750618935,-0.7819222211837769,-0.07643427699804306,0.020867280662059784,0.10398578643798828,0,0,0
87897760,d4:22:cd:00:30:92,0.623359203338623,-0.006322403904050589,-0.00667607132345438,-0.7818816900253296,-0.07718031853437424,0.005341446027159691,0.10326957702636719,0,0,0
87914427,d4:22:cd:00:30:92,0.6234030723571777,-0.006307322531938553,-0.0066849421709775925,-0.7818467020988464,-0.0790393054485321,0.012804131954908371,0.09361457824707031,0,0,0
87931094,d4:22:cd:00:30:92,0.6234450936317444,-0.006296137813478708,-0.0067061749286949635,-0.7818130850791931,-0.07579851150512695,0.003990642260760069,0.1001129150390625,0,0,0
87947761,d4:22:cd:00:30:92,0.6234853863716125,-0.006290822755545378,-0.0067132506519556046,-0.7817809581756592,-0.08356038480997086,0.029880989342927933,0.11350154876708984,0,0,0
87964428,d4:22:cd:00:30:92,0.6235311031341553,-0.006288979668170214,-0.006719058379530907,-0.7817444801330566,-0.08113729953765869,0.030181264504790306,0.09425830841064453,0,0,0
87981095,d4:22:cd:00:30:92,0.6235771775245667,-0.006285260431468487,-0.0067239198833703995,-0.781707763671875,-0.07479903846979141,0.027466602623462677,0.08975791931152344,0,0,0
87997762,d4:22:cd:00:30:92,0.6236292719841003,-0.006270662881433964,-0.006721558980643749,-0.7816661596298218,-0.07405566424131393,0.015485103242099285,0.10459232330322266,0,0,0
88014429,d4:22:cd:00:30:92,0.6236719489097595,-0.006255194544792175,-0.006735915783792734,-0.7816320657730103,-0.08476343005895615,0.01136255357414484,0.09936141967773438,0,0,0
88031096,d4:22:cd:00:30:92,0.6237167119979858,-0.006248791702091694,-0.006751616485416889,-0.7815963625907898,-0.07830718904733658,0.027712345123291016,0.10393714904785156,0,0,0
88047763,d4:22:cd:00:30:92,0.6237565875053406,-0.006244046147912741,-0.006750423926860094,-0.7815645337104797,-0.07992374151945114,0.020478034391999245,0.1063089370727539,0,0,0
88064430,d4:22:cd:00:30:92,0.6237976551055908,-0.006239739712327719,-0.0067605008371174335,-0.7815316915512085,-0.09973008185625076,0.0265240129083395,0.10225582122802734,0,0,0
88081097,d4:22:cd:00:30:92,0.6238456964492798,-0.006233697757124901,-0.006777802016586065,-0.7814933657646179,-0.07358036935329437,0.024495769292116165,0.09624099731445312,0,0,0
88097764,d4:22:cd:00:30:92,0.6238865852355957,-0.006228067446500063,-0.006779009941965342,-0.781460702419281,-0.07310139387845993,0.02531920187175274,0.09579086303710938,0,0,0
88114431,d4:22:cd:00:30:92,0.6239233613014221,-0.006221179850399494,-0.0067912214435637,-0.781431257724762,-0.0814199149608612,0.022778058424592018,0.09957313537597656,0,0,0
88131098,d4:22:cd:00:30:92,0.6239584684371948,-0.006194815505295992,-0.006799990311264992,-0.7814033031463623,-0.07270504534244537,0.022109441459178925,0.09710979461669922,0,0,0
88147765,d4:22:cd:00:30:92,0.624008059501648,-0.006190909072756767,-0.006811328697949648,-0.7813636660575867,-0.07836288213729858,0.015958469361066818,0.09916400909423828,0,0,0
88164432,d4:22:cd:00:30:92,0.624052882194519,-0.006177062634378672,-0.006828144192695618,-0.7813279628753662,-0.06945430487394333,0.005447077099233866,0.10262870788574219,0,0,0
88181099,d4:22:cd:00:30:92,0.6240957975387573,-0.006154573056846857,-0.006832673214375973,-0.7812937498092651,-0.07139281928539276,0.013698208145797253,0.10625076293945312,0,0,0
88197766,d4:22:cd:00:30:92,0.6241410374641418,-0.00614289753139019,-0.006850637029856443,-0.7812575697898865,-0.08430776745080948,0.02198798954486847,0.1034383773803711,0,0,0
88214433,d4:22:cd:00:30:92,0.624189019203186,-0.006137457210570574,-0.006858367007225752,-0.7812191843986511,-0.08473670482635498,0.0177615899592638,0.09531307220458984,0,0,0
88231100,d4:22:cd:00:30:92,0.6242415308952332,-0.006126440595835447,-0.006861608009785414,-0.781177282333374,-0.07813512533903122,0.023264827206730843,0.09648418426513672,0,0,0
88247767,d4:22:cd:00:30:92,0.6242905855178833,-0.00612347386777401,-0.006871291436254978,-0.7811379432678223,-0.05960898473858833,0.016518617048859596,0.09598922729492188,0,0,0
88264434,d4:22:cd:00:30:92,0.624331533908844,-0.006114095449447632,-0.006874268874526024,-0.7811053395271301,-0.08614447712898254,0.016428817063570023,0.09390926361083984,0,0,0
88281101,d4:22:cd:00:30:92,0.6243777871131897,-0.006105854641646147,-0.006888874340802431,-0.7810682654380798,-0.07632819563150406,0.012397495098412037,0.09614849090576172,0,0,0
88297768,d4:22:cd:00:30:92,0.624416172504425,-0.006086019333451986,-0.006898974068462849,-0.7810376286506653,-0.07472280412912369,0.019340386614203453,0.10300064086914062,0,0,0
88314435,d4:22:cd:00:30:92,0.6244568824768066,-0.006083387415856123,-0.006910879630595446,-0.7810050249099731,-0.08410739153623581,0.03055601567029953,0.09978961944580078,0,0,0
88331102,d4:22:cd:00:30:92,0.6245056986808777,-0.00608022790402174,-0.006927293725311756,-0.7809658646583557,-0.08298099040985107,0.016699794679880142,0.09380531311035156,0,0,0
88347769,d4:22:cd:00:30:92,0.6245542764663696,-0.006060408893972635,-0.006951377727091312,-0.7809269428253174,-0.08042697608470917,0.027955425903201103,0.08675765991210938,0,0,0
88364436,d4:22:cd:00:30:92,0.6246092319488525,-0.006046203430742025,-0.00695687485858798,-0.7808830142021179,-0.08586020022630692,0.011012098751962185,0.08987045288085938,0,0,0
88381103,d4:22:cd:00:30:92,0.624656081199646,-0.006040062755346298,-0.00696710217744112,-0.7808457016944885,-0.08879860490560532,0.02345600537955761,0.10559844970703125,0,0,0
88397770,d4:22:cd:00:30:92,0.6247022151947021,-0.006025637034326792,-0.006991466972976923,-0.7808085680007935,-0.08912970125675201,0.015156381763517857,0.09680843353271484,0,0,0
88414437,d4:22:cd:00:30:92,0.6247493028640747,-0.006029440090060234,-0.0069999475963413715,-0.7807707786560059,-0.07655027508735657,0.010380908846855164,0.0992422103881836,0,0,0
88431104,d4:22:cd:00:30:92,0.6247965097427368,-0.006033602636307478,-0.0070169297978281975,-0.7807327508926392,-0.07370675355195999,0.004877705592662096,0.0940084457397461,0,0,0
88447771,d4:22:cd:00:30:92,0.6248312592506409,-0.0060186125338077545,-0.007029596716165543,-0.7807049751281738,-0.08921381086111069,0.017161540687084198,0.1031808853149414,0,0,0
88464438,d4:22:cd:00:30:92,0.6248729825019836,-0.006012588273733854,-0.007048565894365311,-0.7806715369224548,-0.07712282240390778,0.013746839947998524,0.09589099884033203,0,0,0
88481105,d4:22:cd:00:30:92,0.6249223947525024,-0.006001914851367474,-0.007066445890814066,-0.7806318402290344,-0.08345817029476166,0.023552224040031433,0.09772586822509766,0,0,0
88497772,d4:22:cd:00:30:92,0.6249642372131348,-0.005999782122671604,-0.007076688576489687,-0.7805981636047363,-0.07890196144580841,0.011222487315535545,0.10337257385253906,0,0,0
88514439,d4:22:cd:00:30:92,0.6250095367431641,-0.006006666459143162,-0.007086970377713442,-0.7805618047714233,-0.07819339632987976,0.011923501268029213,0.10239505767822266,0,0,0
88531106,d4:22:cd:00:30:92,0.6250472664833069,-0.005985136143863201,-0.007097593042999506,-0.7805317640304565,-0.07242640107870102,0.011638711206614971,0.0910787582397461,0,0,0
88547773,d4:22:cd:00:30:92,0.6250851154327393,-0.005969871301203966,-0.007121456786990166,-0.7805013060569763,-0.08118545264005661,0.023604029789566994,0.10028266906738281,0,0,0
88564440,d4:22:cd:00:30:92,0.6251261830329895,-0.0059644137509167194,-0.007130103185772896,-0.7804683446884155,-0.08770003169775009,0.0004807309596799314,0.10065269470214844,0,0,0
88581107,d4:22:cd:00:30:92,0.6251601576805115,-0.0059514120221138,-0.00713714025914669,-0.780441164970398,-0.08322565257549286,0.02159801870584488,0.1014556884765625,0,0,0
88597774,d4:22:cd:00:30:92,0.6252049803733826,-0.005942417774349451,-0.007153854705393314,-0.7804051637649536,-0.08873797953128815,0.017998196184635162,0.08855438232421875,0,0,0
88614441,d4:22:cd:00:30:92,0.6252484917640686,-0.0059272716753184795,-0.007158402353525162,-0.7803705334663391,-0.09520332515239716,0.018487483263015747,0.1000518798828125,0,0,0
88631108,d4:22:cd:00:30:92,0.6252897381782532,-0.00591251952573657,-0.007162113208323717,-0.7803375124931335,-0.0812130942940712,0.031974609941244125,0.09998130798339844,0,0,0
88647775,d4:22:cd:00:30:92,0.6253324747085571,-0.005893542896956205,-0.007181577850133181,-0.7803031206130981,-0.08964560925960541,0.02413860708475113,0.09941577911376953,0,0,0
88664442,d4:22:cd:00:30:92,0.6253806948661804,-0.005891202017664909,-0.007194550242275,-0.7802643179893494,-0.07771946489810944,0.023193171247839928,0.09902763366699219,0,0,0
88681109,d4:22:cd:00:30:92,0.6254176497459412,-0.005884215235710144,-0.007207941729575396,-0.7802348136901855,-0.09019164741039276,0.015453116036951542,0.08977413177490234,0,0,0
88697776,d4:22:cd:00:30:92,0.6254539489746094,-0.005883634090423584,-0.007219696883112192,-0.7802055478096008,-0.08102491497993469,0.026445072144269943,0.1038961410522461,0,0,0
88714443,d4:22:cd:00:30:92,0.625494658946991,-0.005876201204955578,-0.00721585052087903,-0.7801730036735535,-0.08456511050462723,0.02549028769135475,0.09092140197753906,0,0,0
88731110,d4:22:cd:00:30:92,0.6255305409431458,-0.0058680251240730286,-0.007218077313154936,-0.7801442742347717,-0.10084930807352066,0.009962492622435093,0.09153556823730469,0,0,0
88747777,d4:22:cd:00:30:92,0.6255735158920288,-0.005862926598638296,-0.007221851497888565,-0.7801097631454468,-0.08850675076246262,0.020157532766461372,0.08737754821777344,0,0,0
88764444,d4:22:cd:00:30:92,0.6256153583526611,-0.005848630331456661,-0.007238604594022036,-0.7800762057304382,-0.08407483249902725,0.022809350863099098,0.10763168334960938,0,0,0
88781111,d4:22:cd:00:30:92,0.6256501078605652,-0.005844240542501211,-0.007249322719871998,-0.7800483107566833,-0.09435848146677017,0.01998530700802803,0.10444259643554688,0,0,0
88797778,d4:22:cd:00:30:92,0.6256937980651855,-0.0058296844363212585,-0.00725699495524168,-0.780013382434845,-0.08691787719726562,0.01562570407986641,0.10488700866699219,0,0,0
88814445,d4:22:cd:00:30:92,0.6257357597351074,-0.00582579942420125,-0.00726692471653223,-0.7799795269966125,-0.08706487715244293,0.022043172270059586,0.10114479064941406,0,0,0
88831112,d4:22:cd:00:30:92,0.6257824897766113,-0.005811877548694611,-0.007269216235727072,-0.7799421548843384,-0.08994711935520172,0.022958898916840553,0.10796260833740234,0,0,0
88847779,d4:22:cd:00:30:92,0.625812292098999,-0.005805303808301687,-0.007269010879099369,-0.7799182534217834,-0.09638822823762894,0.015003739856183529,0.10582542419433594,0,0,0
88864446,d4:22:cd:00:30:92,0.6258566975593567,-0.005794868804514408,-0.007279969286173582,-0.7798826098442078,-0.089057058095932,0.015409821644425392,0.09334278106689453,0,0,0
88881113,d4:22:cd:00:30:92,0.6258949637413025,-0.005786583758890629,-0.007286798674613237,-0.7798518538475037,-0.08219965547323227,0.027718959376215935,0.09120845794677734,0,0,0
88897780,d4:22:cd:00:30:92,0.625935971736908,-0.005784003064036369,-0.007298822980374098,-0.7798188328742981,-0.09345047175884247,0.021697010844945908,0.08912467956542969,0,0,0
88914447,d4:22:cd:00:30:92,0.6259781718254089,-0.00577649287879467,-0.0073084477335214615,-0.7797849774360657,-0.08994137495756149,0.010628296062350273,0.10619068145751953,0,0,0
88931114,d4:22:cd:00:30:92,0.626017153263092,-0.005762016866356134,-0.007324506063014269,-0.7797536253929138,-0.09033368527889252,0.01892273686826229,0.11123943328857422,0,0,0
88947781,d4:22:cd:00:30:92,0.6260620951652527,-0.0057496423833072186,-0.007335578091442585,-0.7797175049781799,-0.0967646911740303,0.02463141828775406,0.1050405502319336,0,0,0
88964448,d4:22:cd:00:30:92,0.6261087656021118,-0.005749061703681946,-0.007336315233260393,-0.779680073261261,-0.09933210164308548,0.022263769060373306,0.09107398986816406,0,0,0
88981115,d4:22:cd:00:30:92,0.62614905834198,-0.005738579202443361,-0.0073534524999558926,-0.7796476483345032,-0.09547749906778336,0.009819322265684605,0.10605812072753906,0,0,0
88997782,d4:22:cd:00:30:92,0.626183807849884,-0.005728763993829489,-0.007352575659751892,-0.7796199321746826,-0.09742222726345062,0.021933238953351974,0.10048103332519531,0,0,0
89014449,d4:22:cd:00:30:92,0.6262145042419434,-0.005724980495870113,-0.007369454484432936,-0.779594898223877,-0.09131774306297302,0.01664559915661812,0.08779239654541016,0,0,0
89031116,d4:22:cd:00:30:92,0.6262511610984802,-0.005719654727727175,-0.007372231222689152,-0.7795655131340027,-0.0966586098074913,0.020646072924137115,0.10493659973144531,0,0,0
89047783,d4:22:cd:00:30:92,0.6262944340705872,-0.005708490964025259,-0.00737781124189496,-0.7795307040214539,-0.09799586236476898,0.022874493151903152,0.10790252685546875,0,0,0
89064450,d4:22:cd:00:30:92,0.6263375878334045,-0.0057023074477910995,-0.0073865363374352455,-0.7794962525367737,-0.10104066133499146,0.019674958661198616,0.08906745910644531,0,0,0
89081117,d4:22:cd:00:30:92,0.6263683438301086,-0.005687962286174297,-0.007401669397950172,-0.7794713377952576,-0.09945356845855713,0.027249235659837723,0.09678840637207031,0,0,0
89097784,d4:22:cd:00:30:92,0.626410722732544,-0.005674806889146566,-0.007405489683151245,-0.7794373631477356,-0.0987001284956932,0.013467347249388695,0.1026468276977539,0,0,0
89114451,d4:22:cd:00:30:92,0.6264520883560181,-0.005674423184245825,-0.00741192139685154,-0.7794041633605957,-0.09898015111684799,0.009018664248287678,0.09229850769042969,0,0,0
89131118,d4:22:cd:00:30:92,0.6264937520027161,-0.0056703039444983006,-0.0074219065718352795,-0.7793704271316528,-0.09654023498296738,0.011083920486271381,0.08918380737304688,0,0,0
89147785,d4:22:cd:00:30:92,0.6265301704406738,-0.00566543685272336,-0.007424773648381233,-0.7793413996696472,-0.07990715652704239,0.015083174221217632,0.10010051727294922,0,0,0
89164452,d4:22:cd:00:30:92,0.626568615436554,-0.0056508975103497505,-0.00744142709299922,-0.7793102860450745,-0.09411471337080002,0.021237069740891457,0.09534454345703125,0,0,0
89181119,d4:22:cd:00:30:92,0.6265966296195984,-0.005634468514472246,-0.007453877478837967,-0.7792877554893494,-0.10670475661754608,0.006488204002380371,0.1045389175415039,0,0,0
89197786,d4:22:cd:00:30:92,0.6266354322433472,-0.005625040270388126,-0.007462994195520878,-0.7792565226554871,-0.09802401065826416,0.007818298414349556,0.1026611328125,0,0,0
89214453,d4:22:cd:00:30:92,0.6266679167747498,-0.005621612537652254,-0.007466970942914486,-0.7792304754257202,-0.08995704352855682,0.029863985255360603,0.08547019958496094,0,0,0
89231120,d4:22:cd:00:30:92,0.6267030835151672,-0.005613265093415976,-0.0074707819148898125,-0.7792020440101624,-0.09145385771989822,0.031149324029684067,0.1064138412475586,0,0,0
89247787,d4:22:cd:00:30:92,0.6267362236976624,-0.005609797779470682,-0.0074744923040270805,-0.7791755795478821,-0.09118160605430603,0.026293357834219933,0.09058380126953125,0,0,0
89264454,d4:22:cd:00:30:92,0.6267709136009216,-0.005610475316643715,-0.0074843065813183784,-0.7791475057601929,-0.08166621625423431,0.020795365795493126,0.09598541259765625,0,0,0
89281121,d4:22:cd:00:30:92,0.6268020868301392,-0.005616216454654932,-0.0074901459738612175,-0.7791223526000977,-0.09524182975292206,0.02329309843480587,0.09905815124511719,0,0,0
89297788,d4:22:cd:00:30:92,0.6268374919891357,-0.005613347981125116,-0.007493782788515091,-0.7790939211845398,-0.08800971508026123,0.02877325937151909,0.09495353698730469,0,0,0
89314455,d4:22:cd:00:30:92,0.6268748044967651,-0.005614586174488068,-0.007497296668589115,-0.7790636420249939,-0.09786929935216904,0.014009040780365467,0.10072898864746094,0,0,0
89331122,d4:22:cd:00:30:92,0.626909077167511,-0.005608071107417345,-0.007507226429879665,-0.7790361046791077,-0.08246700465679169,0.011679145507514477,0.10653305053710938,0,0,0
89347789,d4:22:cd:00:30:92,0.6269443035125732,-0.005598131567239761,-0.007519815117120743,-0.7790076732635498,-0.09524954110383987,0.015388629399240017,0.10083484649658203,0,0,0
89364456,d4:22:cd:00:30:92,0.626979649066925,-0.0055846464820206165,-0.00752526568248868,-0.7789793610572815,-0.09427498281002045,0.020493678748607635,0.09601783752441406,0,0,0
89381123,d4:22:cd:00:30:92,0.6270142793655396,-0.00557786226272583,-0.007531833369284868,-0.7789514660835266,-0.09145447611808777,0.015895197167992592,0.0960836410522461,0,0,0
89397790,d4:22:cd:00:30:92,0.6270503997802734,-0.00556964473798871,-0.0075329625979065895,-0.778922438621521,-0.09940903633832932,0.01641753315925598,0.09451961517333984,0,0,0
89414457,d4:22:cd:00:30:92,0.6270827054977417,-0.005566541571170092,-0.007535864133387804,-0.7788964509963989,-0.0897081196308136,0.01276384387165308,0.1006937026977539,0,0,0
89431124,d4:22:cd:00:30:92,0.6271061301231384,-0.00556094478815794,-0.007542127277702093,-0.7788775563240051,-0.09116022288799286,0.028592035174369812,0.10082530975341797,0,0,0
89447791,d4:22:cd:00:30:92,0.627131462097168,-0.005553265102207661,-0.007551451213657856,-0.7788571715354919,-0.0934341698884964,0.02730056457221508,0.10561847686767578,0,0,0
89464458,d4:22:cd:00:30:92,0.6271573305130005,-0.005544192157685757,-0.007567491848021746,-0.7788361310958862,-0.10108262300491333,0.015169353224337101,0.11238574981689453,0,0,0
89481125,d4:22:cd:00:30:92,0.6271880269050598,-0.005530518479645252,-0.007563472725450993,-0.778811514377594,-0.095866858959198,0.02083718031644821,0.09992504119873047,0,0,0
89497792,d4:22:cd:00:30:92,0.627216100692749,-0.005533753894269466,-0.007561357691884041,-0.7787889242172241,-0.09540843963623047,0.023921187967061996,0.10113334655761719,0,0,0
89514459,d4:22:cd:00:30:92,0.6272497177124023,-0.005539103411138058,-0.00757070304825902,-0.7787618041038513,-0.09829120337963104,0.019706718623638153,0.09012699127197266,0,0,0
89531126,d4:22:cd:00:30:92,0.6272866129875183,-0.005541250575333834,-0.007575018797069788,-0.7787320017814636,-0.0971762016415596,0.025541478767991066,0.10456371307373047,0,0,0
89547793,d4:22:cd:00:30:92,0.6273151636123657,-0.0055363113060593605,-0.007571590598672628,-0.7787091135978699,-0.10655133426189423,0.013473514467477798,0.10065841674804688,0,0,0
89564460,d4:22:cd:00:30:92,0.627342700958252,-0.005541765131056309,-0.007570146583020687,-0.7786868214607239,-0.10220716893672943,0.014065509662032127,0.1060476303100586,0,0,0
89581127,d4:22:cd:00:30:92,0.6273828148841858,-0.005543905310332775,-0.007564960978925228,-0.7786545157432556,-0.09191416949033737,0.015797369182109833,0.11578178405761719,0,0,0
89597794,d4:22:cd:00:30:92,0.6274186968803406,-0.005536948796361685,-0.007573254406452179,-0.7786256074905396,-0.09885314106941223,0.028466762974858284,0.09510326385498047,0,0,0
89614461,d4:22:cd:00:30:92,0.6274448037147522,-0.00551984878256917,-0.007595790084451437,-0.7786045074462891,-0.10993171483278275,0.023959433659911156,0.10008716583251953,0,0,0
89631128,d4:22:cd:00:30:92,0.6274815797805786,-0.005512670148164034,-0.0076047745533287525,-0.7785748839378357,-0.1008521318435669,0.03603171929717064,0.10988235473632812,0,0,0
89647795,d4:22:cd:00:30:92,0.6275146007537842,-0.005507446359843016,-0.007611898239701986,-0.7785481214523315,-0.10087832063436508,0.02816738188266754,0.0996084213256836,0,0,0
89664462,d4:22:cd:00:30:92,0.6275421380996704,-0.005508342292159796,-0.007614516653120518,-0.7785259485244751,-0.10471899807453156,0.009593099355697632,0.0913095474243164,0,0,0
89681129,d4:22:cd:00:30:92,0.6275834441184998,-0.005500218365341425,-0.007624728139489889,-0.7784926295280457,-0.09571094065904617,0.014036823064088821,0.1081552505493164,0,0,0
89697796,d4:22:cd:00:30:92,0.6276121735572815,-0.005500649567693472,-0.007627712097018957,-0.7784695029258728,-0.09733931720256805,0.024293508380651474,0.10605049133300781,0,0,0
89714463,d4:22:cd:00:30:92,0.6276496052742004,-0.005499571096152067,-0.007638151291757822,-0.7784391641616821,-0.0978005900979042,0.024113936349749565,0.1018686294555664,0,0,0
89731130,d4:22:cd:00:30:92,0.6276852488517761,-0.005481897387653589,-0.007635793182998896,-0.7784105539321899,-0.09868200868368149,0.02452784776687622,0.09777259826660156,0,0,0
89747797,d4:22:cd:00:30:92,0.6277228593826294,-0.005472563207149506,-0.007645675912499428,-0.7783801555633545,-0.08774551749229431,0.020742477849125862,0.1072845458984375,0,0,0
