sep=,
Measurement Mode:,Extended (Quaternion)
StartTime:,Tue, 24 May 2022 07:25:33 GMT
© Xsens Technologies B. V. 2005-2022

Timestamp,Address,Quaternion_w,Quaternion_x,Quaternion_y,Quaternion_z,FreeAcc_x,FreeAcc_y,FreeAcc_z,Status,ClipCountAcc,ClipCountGyr
337710860,d4:22:cd:00:30:92,0.6351003646850586,-0.008802663534879684,-0.0034790218342095613,-0.7723717093467712,-0.007343500852584839,0.006855086423456669,0.0956106185913086,0,0,0
337727527,d4:22:cd:00:30:92,0.635076105594635,-0.008805730380117893,-0.0034832104574888945,-0.7723916172981262,0.01372529286891222,-0.002351649571210146,0.09806537628173828,0,0,0
337744194,d4:22:cd:00:30:92,0.6350552439689636,-0.00881159771233797,-0.0034956505987793207,-0.7724086046218872,-0.007281935308128595,0.0010404842905700207,0.1007528305053711,0,0,0
337760861,d4:22:cd:00:30:92,0.635066032409668,-0.008812936022877693,-0.0034822348970919847,-0.7723997235298157,-0.0059022316709160805,0.002143800025805831,0.0895547866821289,0,0,0
337777528,d4:22:cd:00:30:92,0.6350774765014648,-0.008810519240796566,-0.0034896982833743095,-0.7723904252052307,-0.001429461408406496,0.005899439565837383,0.10255146026611328,0,0,0
337794195,d4:22:cd:00:30:92,0.6350822448730469,-0.008817673660814762,-0.0034967053215950727,-0.772386372089386,-0.004205073229968548,0.0033960454165935516,0.10727405548095703,0,0,0
337810862,d4:22:cd:00:30:92,0.6350840330123901,-0.008815525099635124,-0.0034890626557171345,-0.7723849415779114,0.01666269637644291,0.0060247741639614105,0.1025533676147461,0,0,0
337827529,d4:22:cd:00:30:92,0.6350845098495483,-0.008812393993139267,-0.0034972215071320534,-0.7723846435546875,-0.01719694398343563,0.0013100547948852181,0.09681034088134766,0,0,0
337844196,d4:22:cd:00:30:92,0.6350812911987305,-0.008813637308776379,-0.003487693378701806,-0.7723871469497681,0.0067616719752550125,0.014492115937173367,0.0906362533569336,0,0,0
337860863,d4:22:cd:00:30:92,0.6350935101509094,-0.008828519843518734,-0.0034871497191488743,-0.7723769545555115,0.014835843816399574,-0.004278188105672598,0.09670639038085938,0,0,0
337877530,d4:22:cd:00:30:92,0.6351040005683899,-0.008835061453282833,-0.0034832835663110018,-0.7723682522773743,-0.004768670070916414,0.007682217285037041,0.09241199493408203,0,0,0
337894197,d4:22:cd:00:30:92,0.6350956559181213,-0.008835491724312305,-0.003481356194242835,-0.7723751068115234,0.015596510842442513,0.0029511672910302877,0.09639835357666016,0,0,0
337910864,d4:22:cd:00:30:92,0.6350899934768677,-0.008836882188916206,-0.0034803368616849184,-0.7723798155784607,0.005819262936711311,0.003873629728332162,0.09815788269042969,0,0,0
337927531,d4:22:cd:00:30:92,0.6350774765014648,-0.008830897510051727,-0.003485842375084758,-0.7723901867866516,-0.006209345534443855,-0.0060347905382514,0.08763694763183594,0,0,0
337944198,d4:22:cd:00:30:92,0.635081946849823,-0.008837339468300343,-0.0034865213092416525,-0.7723864316940308,0.004288598895072937,0.0015316155040636659,0.10257339477539062,0,0,0
337960865,d4:22:cd:00:30:92,0.6350747346878052,-0.008843408897519112,-0.0034883907064795494,-0.7723922729492188,-0.007550494745373726,0.019730104133486748,0.09598064422607422,0,0,0
337977532,d4:22:cd:00:30:92,0.6350657939910889,-0.008841012604534626,-0.003489691298455,-0.7723996639251709,0.0029243386816233397,0.009330041706562042,0.0994729995727539,0,0,0
337994199,d4:22:cd:00:30:92,0.6350635290145874,-0.008837682195007801,-0.0034945609513670206,-0.7724016308784485,-0.00011339266347931698,-0.014022210612893105,0.10377788543701172,0,0,0
338010866,d4:22:cd:00:30:92,0.635068953037262,-0.008846149779856205,-0.00350058707408607,-0.7723968029022217,-0.006492737215012312,-0.004353333730250597,0.08526420593261719,0,0,0
338027533,d4:22:cd:00:30:92,0.6350842714309692,-0.008846276439726353,-0.003498150035738945,-0.7723844051361084,-0.004869112744927406,-0.000391339766792953,0.10228538513183594,0,0,0
338044200,d4:22:cd:00:30:92,0.6350801587104797,-0.008839827962219715,-0.003500884398818016,-0.7723878622055054,0.0007948976126499474,-0.006125700660049915,0.09305763244628906,0,0,0
338060867,d4:22:cd:00:30:92,0.6350653767585754,-0.008840619586408138,-0.0035093564074486494,-0.77239990234375,0.004054456949234009,0.0004575484781526029,0.09616947174072266,0,0,0
338077534,d4:22:cd:00:30:92,0.6350619792938232,-0.008825557306408882,-0.0035091047175228596,-0.772402822971344,-0.0029473849572241306,0.003196493722498417,0.09153461456298828,0,0,0
338094201,d4:22:cd:00:30:92,0.6350626945495605,-0.008830532431602478,-0.0035104111302644014,-0.7724021077156067,0.004998097196221352,0.004556723870337009,0.1041259765625,0,0,0
338110868,d4:22:cd:00:30:92,0.635057806968689,-0.008838504552841187,-0.003505144966766238,-0.772406280040741,-0.002750440500676632,0.013865011744201183,0.10291099548339844,0,0,0
338127535,d4:22:cd:00:30:92,0.6350502371788025,-0.008841196075081825,-0.003502971027046442,-0.7724123001098633,-0.0014281133189797401,0.004329267889261246,0.10848140716552734,0,0,0
338144202,d4:22:cd:00:30:92,0.6350460648536682,-0.00883937906473875,-0.0035024008248001337,-0.7724157571792603,0.0024910536594688892,-0.009057272225618362,0.10152912139892578,0,0,0
338160869,d4:22:cd:00:30:92,0.6350408792495728,-0.008829943835735321,-0.0035036946646869183,-0.7724201083183289,0.0015706639969721437,0.002890361240133643,0.09641265869140625,0,0,0
338177536,d4:22:cd:00:30:92,0.635042667388916,-0.008817137219011784,-0.003504822263494134,-0.772418737411499,-0.006831058766692877,-0.014379538595676422,0.09531116485595703,0,0,0
338194203,d4:22:cd:00:30:92,0.6350377798080444,-0.00881160981953144,-0.0035066516138613224,-0.7724229693412781,-0.013601941987872124,-0.010718640871345997,0.0867776870727539,0,0,0
338210870,d4:22:cd:00:30:92,0.635033130645752,-0.008812480606138706,-0.003500270424410701,-0.7724267840385437,-0.002445706631988287,-0.01315317489206791,0.09035110473632812,0,0,0
338227537,d4:22:cd:00:30:92,0.6350330710411072,-0.00881839357316494,-0.0035007125698029995,-0.7724267840385437,-0.007934045977890491,0.0035213103983551264,0.09860038757324219,0,0,0
338244204,d4:22:cd:00:30:92,0.6350303292274475,-0.008821947500109673,-0.0034958820324391127,-0.7724289894104004,0.001277945819310844,-0.002311598975211382,0.0928802490234375,0,0,0
338260871,d4:22:cd:00:30:92,0.6350415945053101,-0.008815732784569263,-0.003493179567158222,-0.772419810295105,0.001862550969235599,-0.0066637699492275715,0.0921783447265625,0,0,0
338277538,d4:22:cd:00:30:92,0.6350278854370117,-0.00881949532777071,-0.003492893185466528,-0.7724310755729675,0.0106956847012043,0.0002618419239297509,0.10532665252685547,0,0,0
338294205,d4:22:cd:00:30:92,0.6350266337394714,-0.00882559921592474,-0.0034928303211927414,-0.7724319696426392,-0.00860609021037817,-0.0016684229485690594,0.1039113998413086,0,0,0
338310872,d4:22:cd:00:30:92,0.6350266933441162,-0.008825449272990227,-0.0034993034787476063,-0.7724319100379944,0.0025203495752066374,-0.003135726088657975,0.08550167083740234,0,0,0
338327539,d4:22:cd:00:30:92,0.6350181698799133,-0.008826672099530697,-0.0035015863832086325,-0.7724389433860779,0.009609171189367771,-0.00023001577937975526,0.10570430755615234,0,0,0
338344206,d4:22:cd:00:30:92,0.6350152492523193,-0.008828409016132355,-0.0034999693743884563,-0.7724413275718689,-0.004566654097288847,0.00634601479396224,0.10471916198730469,0,0,0
338360873,d4:22:cd:00:30:92,0.6350185871124268,-0.008828640915453434,-0.0035029174759984016,-0.7724385261535645,0.006003325805068016,0.0018979079322889447,0.0945587158203125,0,0,0
338377540,d4:22:cd:00:30:92,0.6350189447402954,-0.008827577345073223,-0.0035000022035092115,-0.7724382281303406,-0.007778119761496782,0.00858251005411148,0.09222793579101562,0,0,0
338394207,d4:22:cd:00:30:92,0.6350196599960327,-0.008825876750051975,-0.003503452055156231,-0.7724376916885376,0.0056350636295974255,0.0044077420607209206,0.10745048522949219,0,0,0
338410874,d4:22:cd:00:30:92,0.6350297331809998,-0.008818923495709896,-0.003499588929116726,-0.7724294662475586,-0.006309038959443569,0.004785587079823017,0.10174179077148438,0,0,0
338427541,d4:22:cd:00:30:92,0.635040283203125,-0.008816936984658241,-0.0034995018504559994,-0.7724208235740662,-0.00817121472209692,0.0013744090683758259,0.0960693359375,0,0,0
338444208,d4:22:cd:00:30:92,0.6350385546684265,-0.008809170685708523,-0.0035022753290832043,-0.7724223732948303,-0.0055268327705562115,-0.011677371338009834,0.07523727416992188,0,0,0
338460875,d4:22:cd:00:30:92,0.6350441575050354,-0.008810145780444145,-0.003506941022351384,-0.7724176645278931,-0.0018032204825431108,0.005493892356753349,0.09933853149414062,0,0,0
338477542,d4:22:cd:00:30:92,0.6350489258766174,-0.008823363110423088,-0.003502306528389454,-0.7724136114120483,0.0015020890859887004,-0.002642778679728508,0.10809612274169922,0,0,0
338494209,d4:22:cd:00:30:92,0.6350513100624084,-0.00881976168602705,-0.003497775411233306,-0.7724117040634155,0.0026054084300994873,0.002481220755726099,0.10986900329589844,0,0,0
338510876,d4:22:cd:00:30:92,0.6350393891334534,-0.008818703703582287,-0.003500609425827861,-0.7724214792251587,-0.0011260216124355793,-0.0075483014807105064,0.09435844421386719,0,0,0
338527543,d4:22:cd:00:30:92,0.6350328922271729,-0.008819570764899254,-0.003502137027680874,-0.7724267840385437,0.000034805158065864816,0.009531441144645214,0.09455680847167969,0,0,0
338544210,d4:22:cd:00:30:92,0.6350335478782654,-0.008824768476188183,-0.0035114113707095385,-0.772426187992096,0.00417330814525485,-0.0009892228990793228,0.09469795227050781,0,0,0
338560877,d4:22:cd:00:30:92,0.6350283622741699,-0.00883163046091795,-0.0035084232222288847,-0.7724303007125854,-0.0025819065049290657,0.007281626109033823,0.08970451354980469,0,0,0
338577544,d4:22:cd:00:30:92,0.6350372433662415,-0.008832123130559921,-0.0035132833290845156,-0.7724230289459229,-0.003259089542552829,0.007604682352393866,0.09032058715820312,0,0,0
338594211,d4:22:cd:00:30:92,0.6350354552268982,-0.008838143199682236,-0.003515825141221285,-0.7724244594573975,0.0016992817400023341,0.006255865562707186,0.0950927734375,0,0,0
338610878,d4:22:cd:00:30:92,0.6350377798080444,-0.008824242278933525,-0.003504569176584482,-0.7724227905273438,-0.0030232223216444254,0.006193348206579685,0.09803009033203125,0,0,0
338627545,d4:22:cd:00:30:92,0.6350260376930237,-0.008835883811116219,-0.0035006438847631216,-0.7724323868751526,-0.0034912899136543274,0.001596018671989441,0.105316162109375,0,0,0
338644212,d4:22:cd:00:30:92,0.6350100636482239,-0.008839697577059269,-0.0035053417086601257,-0.7724454402923584,-0.0023532561026513577,0.002509194891899824,0.09774303436279297,0,0,0
338660879,d4:22:cd:00:30:92,0.6350125074386597,-0.008840872906148434,-0.0035022308584302664,-0.772443413734436,0.008247260935604572,0.004589674528688192,0.0917510986328125,0,0,0
338677546,d4:22:cd:00:30:92,0.6350076794624329,-0.008837063796818256,-0.003499772632494569,-0.772447407245636,0.01563590206205845,0.003773436415940523,0.10254764556884766,0,0,0
338694213,d4:22:cd:00:30:92,0.6350091695785522,-0.008842653594911098,-0.0035027703270316124,-0.7724460959434509,0.001584359328262508,0.0034979567863047123,0.08685588836669922,0,0,0
338710880,d4:22:cd:00:30:92,0.6350130438804626,-0.008842306211590767,-0.0034984902013093233,-0.7724429368972778,0.0004894444718956947,0.0028876056894659996,0.10758495330810547,0,0,0
338727547,d4:22:cd:00:30:92,0.6350219249725342,-0.008835031650960445,-0.0034951467532664537,-0.77243572473526,0.0012395137455314398,0.0008703244966454804,0.11467456817626953,0,0,0
338744214,d4:22:cd:00:30:92,0.635018527507782,-0.008837137371301651,-0.003502399893477559,-0.7724384665489197,0.00027331794262863696,-0.004957971163094044,0.09810256958007812,0,0,0
338760881,d4:22:cd:00:30:92,0.6350201368331909,-0.008834871463477612,-0.003500517690554261,-0.7724371552467346,0.004984913393855095,0.003200279548764229,0.09630203247070312,0,0,0
338777548,d4:22:cd:00:30:92,0.6350089907646179,-0.008833679370582104,-0.0035053493920713663,-0.7724463939666748,0.009307741187512875,0.005338331218808889,0.10552501678466797,0,0,0
338794215,d4:22:cd:00:30:92,0.6350046992301941,-0.008835039101541042,-0.003510393900796771,-0.7724497318267822,0.00309487571939826,-0.008657033555209637,0.09604072570800781,0,0,0
338810882,d4:22:cd:00:30:92,0.6349998116493225,-0.008839607238769531,-0.0035070814192295074,-0.7724537253379822,0.0011377560440450907,0.00310509093105793,0.1082448959350586,0,0,0
338827549,d4:22:cd:00:30:92,0.6350096464157104,-0.008844716474413872,-0.0035200302954763174,-0.7724454998970032,0.002151324413716793,-0.00023914140183478594,0.10459041595458984,0,0,0
338844216,d4:22:cd:00:30:92,0.6350070834159851,-0.008835156448185444,-0.0035207930486649275,-0.7724477052688599,-0.004594420548528433,-0.0033898777328431606,0.09703922271728516,0,0,0
338860883,d4:22:cd:00:30:92,0.6350056529045105,-0.008828754536807537,-0.0035299337469041348,-0.7724488973617554,-0.0051186648197472095,-0.005673132371157408,0.10305595397949219,0,0,0
338877550,d4:22:cd:00:30:92,0.6350125670433044,-0.008820618502795696,-0.003532189643010497,-0.7724432945251465,0.00967540591955185,-0.010235762223601341,0.08145904541015625,0,0,0
338894217,d4:22:cd:00:30:92,0.6350074410438538,-0.008823367767035961,-0.0035177592653781176,-0.7724475264549255,0.001063813455402851,0.004214972257614136,0.0960845947265625,0,0,0
338910884,d4:22:cd:00:30:92,0.6350089311599731,-0.008830922655761242,-0.003516311291605234,-0.77244633436203,0.005199707578867674,-0.0036959717981517315,0.1045064926147461,0,0,0
338927551,d4:22:cd:00:30:92,0.6350151896476746,-0.008828136138617992,-0.00350984581746161,-0.7724412679672241,0.016314668580889702,0.0059989443980157375,0.08890628814697266,0,0,0
338944218,d4:22:cd:00:30:92,0.6350173950195312,-0.00882865022867918,-0.003510278183966875,-0.7724394202232361,0.0010429428657516837,0.002053455449640751,0.09244537353515625,0,0,0
338960885,d4:22:cd:00:30:92,0.6350156664848328,-0.008818392641842365,-0.0035113536287099123,-0.7724409699440002,0.0032865293323993683,-0.009513776749372482,0.10937881469726562,0,0,0
338977552,d4:22:cd:00:30:92,0.6350111365318298,-0.00881851278245449,-0.0035116446670144796,-0.7724447250366211,0.008014556020498276,-0.0006347488379105926,0.0904388427734375,0,0,0
338994219,d4:22:cd:00:30:92,0.6350070834159851,-0.008813658729195595,-0.0035201972350478172,-0.7724480628967285,-0.008299069479107857,0.00012840121053159237,0.09016704559326172,0,0,0
339010886,d4:22:cd:00:30:92,0.6349921822547913,-0.00881482195109129,-0.0035217981785535812,-0.7724603414535522,0.0005049821338616312,-0.006812430452555418,0.1006002426147461,0,0,0
339027553,d4:22:cd:00:30:92,0.6349916458129883,-0.008812298998236656,-0.0035179725382477045,-0.7724608182907104,0.00930668693035841,-0.012043485417962074,0.09213066101074219,0,0,0
339044220,d4:22:cd:00:30:92,0.634994626045227,-0.008805744349956512,-0.0035185327287763357,-0.7724584937095642,-0.0005243299528956413,0.002877205377444625,0.091583251953125,0,0,0
339060887,d4:22:cd:00:30:92,0.6349875926971436,-0.00880435761064291,-0.0035182908177375793,-0.7724641561508179,0.010905022732913494,-0.0005808997084386647,0.09093570709228516,0,0,0
339077554,d4:22:cd:00:30:92,0.6349860429763794,-0.008809241466224194,-0.0035224882885813713,-0.7724654078483582,0.0013138598296791315,0.002560393186286092,0.09223651885986328,0,0,0
339094221,d4:22:cd:00:30:92,0.6349816918373108,-0.008818916976451874,-0.003526744432747364,-0.7724688053131104,-0.0013133359607309103,-0.00002184140612371266,0.10527706146240234,0,0,0
339110888,d4:22:cd:00:30:92,0.634989857673645,-0.008821450173854828,-0.003528148401528597,-0.7724621295928955,-0.0018714722245931625,-0.003924807067960501,0.08643913269042969,0,0,0
339127555,d4:22:cd:00:30:92,0.6349955201148987,-0.008818365633487701,-0.0035275891423225403,-0.772457480430603,-0.010965037159621716,0.005114542320370674,0.09296226501464844,0,0,0
339144222,d4:22:cd:00:30:92,0.6349791288375854,-0.008815919049084187,-0.0035196926910430193,-0.7724708318710327,-0.011693153530359268,0.008277411572635174,0.09424400329589844,0,0,0
339160889,d4:22:cd:00:30:92,0.6349834203720093,-0.00882306881248951,-0.0035139545798301697,-0.7724674344062805,-0.002792242681607604,0.008664127439260483,0.08720970153808594,0,0,0
339177556,d4:22:cd:00:30:92,0.6349871754646301,-0.008822616189718246,-0.003511713119223714,-0.7724643349647522,-0.0013333752285689116,0.0036351133603602648,0.09180355072021484,0,0,0
339194223,d4:22:cd:00:30:92,0.6349961757659912,-0.00882332120090723,-0.0035081771202385426,-0.7724568843841553,-0.002967632142826915,0.00160600699018687,0.09258460998535156,0,0,0
339210890,d4:22:cd:00:30:92,0.6349950432777405,-0.008826220408082008,-0.0035074506886303425,-0.7724578380584717,-0.005811911541968584,-0.00022174231708049774,0.0946502685546875,0,0,0
339227557,d4:22:cd:00:30:92,0.634993851184845,-0.008817094378173351,-0.0035120502579957247,-0.7724589109420776,-0.013032691553235054,0.01193120889365673,0.10219192504882812,0,0,0
339244224,d4:22:cd:00:30:92,0.6349903345108032,-0.008823814801871777,-0.0035009938292205334,-0.7724617719650269,0.010818084701895714,-0.0064085740596055984,0.10303306579589844,0,0,0
339260891,d4:22:cd:00:30:92,0.6349852681159973,-0.008828750811517239,-0.0035025174729526043,-0.7724658250808716,-0.009142208844423294,0.01166615728288889,0.0940103530883789,0,0,0
339277558,d4:22:cd:00:30:92,0.6349865794181824,-0.008828474208712578,-0.003503895830363035,-0.7724646925926208,0.004874723497778177,-0.008026901632547379,0.0961446762084961,0,0,0
339294225,d4:22:cd:00:30:92,0.6349883079528809,-0.008818640373647213,-0.0035088779404759407,-0.7724635004997253,0.015246422961354256,0.0118657685816288,0.10322856903076172,0,0,0
339310892,d4:22:cd:00:30:92,0.634995698928833,-0.008813749998807907,-0.003509050002321601,-0.772457480430603,-0.004578668158501387,0.004265297669917345,0.10117435455322266,0,0,0
339327559,d4:22:cd:00:30:92,0.6349915266036987,-0.008817093446850777,-0.0035110744647681713,-0.7724608182907104,-0.012273908592760563,0.008116048760712147,0.09615325927734375,0,0,0
339344226,d4:22:cd:00:30:92,0.6349849104881287,-0.008811218664050102,-0.0035159136168658733,-0.7724663019180298,0.005117039196193218,0.0011014892952516675,0.10524272918701172,0,0,0
339360893,d4:22:cd:00:30:92,0.6349767446517944,-0.00882211048156023,-0.0035190382041037083,-0.7724727392196655,0.00036194955464452505,0.004900510888546705,0.09453773498535156,0,0,0
339377560,d4:22:cd:00:30:92,0.6349750757217407,-0.008817114867269993,-0.0035239094868302345,-0.7724743485450745,-0.005510703194886446,0.00564645417034626,0.09773540496826172,0,0,0
339394227,d4:22:cd:00:30:92,0.6349629759788513,-0.008814146742224693,-0.003520569996908307,-0.7724841833114624,0.007276748772710562,0.012696241028606892,0.09135627746582031,0,0,0
339410894,d4:22:cd:00:30:92,0.6349602341651917,-0.008819607086479664,-0.00352095952257514,-0.7724863886833191,0.0003109274839516729,-0.0016371241072192788,0.08954334259033203,0,0,0
339427561,d4:22:cd:00:30:92,0.6349589228630066,-0.0088246650993824,-0.0035203834995627403,-0.7724874019622803,-0.0019730483181774616,0.004453139379620552,0.09036636352539062,0,0,0
339444228,d4:22:cd:00:30:92,0.6349627375602722,-0.008823203854262829,-0.003517863107845187,-0.772484302520752,0.002417013281956315,0.015513740479946136,0.09545421600341797,0,0,0
339460895,d4:22:cd:00:30:92,0.634967029094696,-0.008815289475023746,-0.003523085732012987,-0.7724807858467102,-0.008206784725189209,-0.0023430269211530685,0.09456062316894531,0,0,0
339477562,d4:22:cd:00:30:92,0.6349714994430542,-0.00881343986839056,-0.0035279076546430588,-0.7724773287773132,-0.005536979995667934,-0.008321627974510193,0.09201812744140625,0,0,0
339494229,d4:22:cd:00:30:92,0.634964108467102,-0.008824804797768593,-0.0035266648046672344,-0.7724832892417908,0.0006200807983987033,0.01030561700463295,0.0885467529296875,0,0,0
339510896,d4:22:cd:00:30:92,0.6349723935127258,-0.008823269046843052,-0.003525946754962206,-0.7724764347076416,-0.004132978152483702,0.003335571149364114,0.09085750579833984,0,0,0
339527563,d4:22:cd:00:30:92,0.6349819302558899,-0.008818598464131355,-0.003520224243402481,-0.772468626499176,-0.002231132471933961,-0.0035526021383702755,0.09732723236083984,0,0,0
339544230,d4:22:cd:00:30:92,0.6349824666976929,-0.00881937425583601,-0.0035242626909166574,-0.7724681496620178,0.004330427385866642,0.005292374640703201,0.10075664520263672,0,0,0
339560897,d4:22:cd:00:30:92,0.6349786520004272,-0.008816087618470192,-0.0035251339431852102,-0.7724713087081909,0.004082680679857731,-0.007015456911176443,0.10195636749267578,0,0,0
339577564,d4:22:cd:00:30:92,0.6349789500236511,-0.008808763697743416,-0.0035328769590705633,-0.7724711298942566,-0.001014776760712266,0.01854703575372696,0.10035896301269531,0,0,0
339594231,d4:22:cd:00:30:92,0.6349837779998779,-0.008814561180770397,-0.0035282850731164217,-0.7724671363830566,-0.0033919401466846466,-0.006518706679344177,0.11442089080810547,0,0,0
339610898,d4:22:cd:00:30:92,0.6349859833717346,-0.00882022175937891,-0.003531327238306403,-0.7724652886390686,-0.0043601179495453835,0.002854669000953436,0.09113121032714844,0,0,0
339627565,d4:22:cd:00:30:92,0.6349904537200928,-0.008818239904940128,-0.003531825030222535,-0.7724616527557373,0.006204607896506786,-0.0038986981380730867,0.10714149475097656,0,0,0
339644232,d4:22:cd:00:30:92,0.6349931955337524,-0.008815259672701359,-0.0035248950589448214,-0.7724594473838806,-0.0021326907444745302,0.0033657103776931763,0.09499835968017578,0,0,0
339660899,d4:22:cd:00:30:92,0.6349839568138123,-0.008818200789391994,-0.0035263129975646734,-0.7724670171737671,-0.005402467213571072,-0.006524919532239437,0.08498573303222656,0,0,0
339677566,d4:22:cd:00:30:92,0.6349828243255615,-0.008819148875772953,-0.0035288601648062468,-0.7724679112434387,-0.00878515187650919,-0.001362210139632225,0.07497406005859375,0,0,0
339694233,d4:22:cd:00:30:92,0.6349800229072571,-0.008820249699056149,-0.0035230813082307577,-0.7724701762199402,-0.009155506268143654,0.013978549279272556,0.08719253540039062,0,0,0
339710900,d4:22:cd:00:30:92,0.6349890828132629,-0.008821058087050915,-0.0035206833854317665,-0.7724627256393433,0.006126745138317347,-0.0030668037943542004,0.09623050689697266,0,0,0
339727567,d4:22:cd:00:30:92,0.6349880695343018,-0.008826765231788158,-0.003525807522237301,-0.7724635004997253,0.0012792886700481176,-0.012840763665735722,0.10333633422851562,0,0,0
339744234,d4:22:cd:00:30:92,0.6350293159484863,-0.008825065568089485,-0.0035017873160541058,-0.7724298238754272,-0.0025477875024080276,0.00037874619010835886,0.09030532836914062,0,0,0
339760901,d4:22:cd:00:30:92,0.6350319981575012,-0.008821242488920689,-0.003505314700305462,-0.7724276781082153,-0.00579524552449584,0.001425701892003417,0.09517860412597656,0,0,0
339777568,d4:22:cd:00:30:92,0.6350352168083191,-0.008820801973342896,-0.0035028737038373947,-0.7724250555038452,0.0024224473163485527,0.005846728570759296,0.08942699432373047,0,0,0
339794235,d4:22:cd:00:30:92,0.6350303292274475,-0.008818740025162697,-0.003509631147608161,-0.7724290490150452,-0.013968328945338726,0.008362227119505405,0.10062026977539062,0,0,0
339810902,d4:22:cd:00:30:92,0.6350306868553162,-0.008829924277961254,-0.0035150484181940556,-0.772428572177887,-0.00022884932695887983,0.0016215341165661812,0.09343242645263672,0,0,0
339827569,d4:22:cd:00:30:92,0.6350252628326416,-0.008826510980725288,-0.0035247269552201033,-0.7724329233169556,-0.004527532495558262,0.007333323825150728,0.09372711181640625,0,0,0
339844236,d4:22:cd:00:30:92,0.6350252032279968,-0.008831044659018517,-0.003525267355144024,-0.7724329829216003,-0.003653757506981492,0.0017202150775119662,0.1055755615234375,0,0,0
339860903,d4:22:cd:00:30:92,0.6350225806236267,-0.00883343443274498,-0.0035394453443586826,-0.7724350094795227,-0.006157644093036652,0.013805015943944454,0.09357070922851562,0,0,0
339877570,d4:22:cd:00:30:92,0.6350250244140625,-0.00882871262729168,-0.003543359925970435,-0.7724331021308899,0.00017327142995782197,-0.000015467794582946226,0.0878896713256836,0,0,0
339894237,d4:22:cd:00:30:92,0.6350318193435669,-0.008838329464197159,-0.003535324241966009,-0.772427499294281,-0.00378259364515543,0.00929136760532856,0.07142829895019531,0,0,0
339910904,d4:22:cd:00:30:92,0.6350238919258118,-0.008842832408845425,-0.0035417629405856133,-0.7724337577819824,-0.00580160366371274,0.00503257242962718,0.08009529113769531,0,0,0
339927571,d4:22:cd:00:30:92,0.6350204348564148,-0.008842350915074348,-0.003541476558893919,-0.7724365592002869,0.0004687782493419945,-0.0002752422296907753,0.09467220306396484,0,0,0
339944238,d4:22:cd:00:30:92,0.6350217461585999,-0.00884708110243082,-0.0035441191866993904,-0.7724354267120361,0.005868846084922552,0.005729216616600752,0.09171009063720703,0,0,0
339960905,d4:22:cd:00:30:92,0.6350144147872925,-0.008852671831846237,-0.0035500505473464727,-0.7724414467811584,-0.0020764737855643034,-0.0015211907448247075,0.1023721694946289,0,0,0
339977572,d4:22:cd:00:30:92,0.6350215077400208,-0.008860557340085506,-0.0035490146838128567,-0.7724354863166809,-0.00618921872228384,0.0025138326454907656,0.10895633697509766,0,0,0
339994239,d4:22:cd:00:30:92,0.6350152492523193,-0.008851719088852406,-0.0035493539180606604,-0.7724407911300659,-0.011009312234818935,0.0005719207692891359,0.09474658966064453,0,0,0
340010906,d4:22:cd:00:30:92,0.6350099444389343,-0.008846815675497055,-0.0035510961897671223,-0.7724452018737793,-0.007717163767665625,0.0019831815734505653,0.08777236938476562,0,0,0
340027573,d4:22:cd:00:30:92,0.6350041031837463,-0.008847422897815704,-0.0035448865965008736,-0.7724500298500061,-0.005025329068303108,-0.0058494736440479755,0.09600353240966797,0,0,0
340044240,d4:22:cd:00:30:92,0.6350082159042358,-0.008845740929245949,-0.003551529021933675,-0.7724466919898987,0.004863929934799671,0.01450542826205492,0.10548019409179688,0,0,0
340060907,d4:22:cd:00:30:92,0.6350150108337402,-0.008851313032209873,-0.0035530971363186836,-0.772441029548645,0.0072175282984972,0.005805675871670246,0.0958108901977539,0,0,0
340077574,d4:22:cd:00:30:92,0.6350048184394836,-0.008837009780108929,-0.003560187527909875,-0.7724493741989136,-0.014205402694642544,0.006225736811757088,0.09890174865722656,0,0,0
340094241,d4:22:cd:00:30:92,0.6350126266479492,-0.008833837695419788,-0.0035618648398667574,-0.7724431753158569,-0.0056325350888073444,0.0055998098105192184,0.0951395034790039,0,0,0
340110908,d4:22:cd:00:30:92,0.6350158452987671,-0.008842937648296356,-0.0035698774736374617,-0.7724404335021973,-0.005535036325454712,-0.0038899320643395185,0.09575176239013672,0,0,0
340127575,d4:22:cd:00:30:92,0.6350252032279968,-0.008847464807331562,-0.003566587343811989,-0.7724325060844421,-0.007516400422900915,0.002073878888040781,0.09746360778808594,0,0,0
340144242,d4:22:cd:00:30:92,0.6350249648094177,-0.008851934224367142,-0.003569014137610793,-0.7724326252937317,-0.004195209126919508,0.009528814814984798,0.09704113006591797,0,0,0
340160909,d4:22:cd:00:30:92,0.635021448135376,-0.008860282599925995,-0.003569947089999914,-0.7724353671073914,0.005361560732126236,0.006829137913882732,0.09358787536621094,0,0,0
340177576,d4:22:cd:00:30:92,0.6350235939025879,-0.0088622672483325,-0.003573019988834858,-0.7724335789680481,0.0037953443825244904,-0.006028015166521072,0.10900497436523438,0,0,0
340194243,d4:22:cd:00:30:92,0.6350302696228027,-0.008870861493051052,-0.0035773064009845257,-0.772428035736084,0.0055510806851089,0.005765391048043966,0.08949470520019531,0,0,0
340210910,d4:22:cd:00:30:92,0.6350316405296326,-0.00888324435800314,-0.00357024185359478,-0.772426962852478,-0.002111142734065652,0.003973501734435558,0.0986328125,0,0,0
340227577,d4:22:cd:00:30:92,0.6350247859954834,-0.008882091380655766,-0.003567320294678211,-0.7724324464797974,0.006548749748617411,-0.010654342360794544,0.09246540069580078,0,0,0
340244244,d4:22:cd:00:30:92,0.6350157856941223,-0.00887784268707037,-0.003564265090972185,-0.7724399566650391,-0.003114286344498396,-0.0007059202762320638,0.10667705535888672,0,0,0
340260911,d4:22:cd:00:30:92,0.6350147724151611,-0.008878255262970924,-0.0035609884653240442,-0.7724407911300659,-0.005710122175514698,0.0077835312113165855,0.0980691909790039,0,0,0
340277578,d4:22:cd:00:30:92,0.6350138783454895,-0.008883867412805557,-0.003565221792086959,-0.7724414467811584,-0.010635956190526485,0.000618338119238615,0.10474014282226562,0,0,0
340294245,d4:22:cd:00:30:92,0.6350087523460388,-0.008885836228728294,-0.003563529346138239,-0.7724456787109375,-0.005523038096725941,0.001991908997297287,0.10399627685546875,0,0,0
340310912,d4:22:cd:00:30:92,0.6350067853927612,-0.008891220204532146,-0.003553866408765316,-0.7724472880363464,-0.005462124012410641,-0.006298130378127098,0.10355758666992188,0,0,0
340327579,d4:22:cd:00:30:92,0.6350018978118896,-0.008887888863682747,-0.0035584100987762213,-0.7724514007568359,0.009508793242275715,0.01285066083073616,0.09413528442382812,0,0,0
340344246,d4:22:cd:00:30:92,0.6349998712539673,-0.00889281090348959,-0.003556787734851241,-0.7724528908729553,0.00017508049495518208,-0.0014992061769589782,0.09812259674072266,0,0,0
340360913,d4:22:cd:00:30:92,0.6349979043006897,-0.008900524117052555,-0.0035614462103694677,-0.7724543809890747,-0.0008656115387566388,0.01608087308704853,0.09566783905029297,0,0,0
340377580,d4:22:cd:00:30:92,0.6349997520446777,-0.008891789242625237,-0.003560122335329652,-0.7724529504776001,-0.012953297235071659,0.010441054590046406,0.09508323669433594,0,0,0
340394247,d4:22:cd:00:30:92,0.6349847912788391,-0.008889919146895409,-0.003548915032297373,-0.7724652886390686,-0.0005288962856866419,-0.00029808946419507265,0.09727668762207031,0,0,0
340410914,d4:22:cd:00:30:92,0.6349806189537048,-0.008890761062502861,-0.003553417045623064,-0.7724686861038208,-0.00981118530035019,0.007954783737659454,0.09508609771728516,0,0,0
340427581,d4:22:cd:00:30:92,0.6349722743034363,-0.008885948918759823,-0.0035541581455618143,-0.7724756598472595,0.005883527919650078,0.009238433092832565,0.08616828918457031,0,0,0
340444248,d4:22:cd:00:30:92,0.6349710822105408,-0.008874332532286644,-0.003551662666723132,-0.772476851940155,-0.012636931613087654,0.008763667196035385,0.10197639465332031,0,0,0
340460915,d4:22:cd:00:30:92,0.6349557638168335,-0.008865518495440483,-0.0035661968868225813,-0.7724895477294922,-0.004473868291825056,0.0020227888599038124,0.09671306610107422,0,0,0
340477582,d4:22:cd:00:30:92,0.6349688768386841,-0.008879887871444225,-0.003561312798410654,-0.7724786996841431,0.0002014043857343495,0.00032160020782612264,0.09604167938232422,0,0,0
340494249,d4:22:cd:00:30:92,0.6349782943725586,-0.008888372220098972,-0.00355591531842947,-0.7724708318710327,-0.0019242579583078623,0.013575754128396511,0.09732246398925781,0,0,0
340510916,d4:22:cd:00:30:92,0.6349802613258362,-0.00888470746576786,-0.0035517869982868433,-0.772469162940979,-0.006902455352246761,0.005625017918646336,0.09061050415039062,0,0,0
340527583,d4:22:cd:00:30:92,0.6349668502807617,-0.008894164115190506,-0.003555961651727557,-0.7724800109863281,0.004600511398166418,-0.0010448043467476964,0.08610153198242188,0,0,0
340544250,d4:22:cd:00:30:92,0.6349649429321289,-0.008901935070753098,-0.0035455527249723673,-0.7724815607070923,0.0045339325442910194,0.0065273744985461235,0.10980415344238281,0,0,0
340560917,d4:22:cd:00:30:92,0.6349743008613586,-0.008903743699193,-0.003544243285432458,-0.7724738121032715,-0.006309955846518278,0.008582775481045246,0.09324455261230469,0,0,0
340577584,d4:22:cd:00:30:92,0.6349774599075317,-0.008906484581530094,-0.003544821171090007,-0.7724712491035461,-0.00426153838634491,-0.005240816622972488,0.11267375946044922,0,0,0
340594251,d4:22:cd:00:30:92,0.6349682807922363,-0.00890861265361309,-0.003556314390152693,-0.7724787592887878,-0.0036586783826351166,0.005143173038959503,0.09175682067871094,0,0,0
340610918,d4:22:cd:00:30:92,0.6349781155586243,-0.008904521353542805,-0.003553256392478943,-0.7724707722663879,0.004292272962629795,0.010747515596449375,0.09853172302246094,0,0,0
340627585,d4:22:cd:00:30:92,0.634983479976654,-0.008913861587643623,-0.0035538149531930685,-0.7724663019180298,-0.004004976712167263,0.013364052399992943,0.0923452377319336,0,0,0
340644252,d4:22:cd:00:30:92,0.6349788308143616,-0.008911955170333385,-0.003543647937476635,-0.7724699378013611,0.0004760930605698377,0.011060710065066814,0.10286808013916016,0,0,0
340660919,d4:22:cd:00:30:92,0.6349791884422302,-0.008912501856684685,-0.0035478940699249506,-0.7724696397781372,-0.007547445595264435,0.004985278472304344,0.09747028350830078,0,0,0
340677586,d4:22:cd:00:30:92,0.6349809765815735,-0.008913450874388218,-0.00354407774284482,-0.7724681496620178,-0.009104094468057156,0.012712396681308746,0.10295677185058594,0,0,0
340694253,d4:22:cd:00:30:92,0.6349843740463257,-0.008913401514291763,-0.003548501990735531,-0.7724654078483582,0.004990705754607916,0.001578961848281324,0.09218406677246094,0,0,0
340710920,d4:22:cd:00:30:92,0.6349910497665405,-0.00890961941331625,-0.0035581830888986588,-0.7724599242210388,-0.0004265465249773115,0.0023350329138338566,0.09397029876708984,0,0,0
340727587,d4:22:cd:00:30:92,0.6349909901618958,-0.008904758840799332,-0.003561524674296379,-0.7724600434303284,0.013343450613319874,0.001670724363066256,0.10800743103027344,0,0,0
340744254,d4:22:cd:00:30:92,0.6348788738250732,-0.008964169770479202,-0.0030503207817673683,-0.7725536823272705,0.027066798880696297,-0.021645067259669304,0.12225723266601562,0,0,0
340760921,d4:22:cd:00:30:92,0.6348324418067932,-0.009025553241372108,-0.0021191569976508617,-0.7725943326950073,0.018303880468010902,0.010124001652002335,0.10677528381347656,0,0,0
340777588,d4:22:cd:00:30:92,0.6338257789611816,-0.009086144156754017,-0.0006941110477782786,-0.7734223008155823,0.01343759335577488,0.05747077614068985,0.10835933685302734,0,0,0
340794255,d4:22:cd:00:30:92,0.6333604454994202,-0.00825695600360632,-0.00003299961826996878,-0.7738128304481506,-0.10581560432910919,-0.056566447019577026,-0.006903648376464844,0,0,0
340810922,d4:22:cd:00:30:92,0.6325594186782837,-0.008208214305341244,-0.0000515675637871027,-0.7744684219360352,0.07195878028869629,0.11300165206193924,0.16345787048339844,0,0,0
340827589,d4:22:cd:00:30:92,0.6318742632865906,-0.00800009910017252,-0.00007828840898582712,-0.7750296592712402,-0.04721724987030029,-0.09764070063829422,0.057709693908691406,0,0,0
340844256,d4:22:cd:00:30:92,0.6318039298057556,-0.007333185523748398,-0.00014892198669258505,-0.7750935554504395,-0.01350319106131792,-0.017475521191954613,0.07931232452392578,0,0,0
340860923,d4:22:cd:00:30:92,0.6317928433418274,-0.006478013005107641,-0.0002823859394993633,-0.7751100659370422,0.0020487341098487377,0.0028809632640331984,0.09097862243652344,0,0,0
340877590,d4:22:cd:00:30:92,0.6319670081138611,-0.006996378302574158,-0.0002450954634696245,-0.7749636173248291,0.09964406490325928,0.021737631410360336,0.20967769622802734,0,0,0
340894257,d4:22:cd:00:30:92,0.6328451037406921,-0.008727872744202614,-0.0011412287130951881,-0.7742283344268799,-0.0388394370675087,0.11150801181793213,0.039699554443359375,0,0,0
340910924,d4:22:cd:00:30:92,0.6323429346084595,-0.008986016735434532,-0.002076169243082404,-0.7746335864067078,-0.03529706597328186,-0.03220411390066147,0.03853797912597656,0,0,0
340927591,d4:22:cd:00:30:92,0.6324959397315979,-0.008914031088352203,-0.001998457359150052,-0.7745097875595093,0.026042453944683075,-0.17038600146770477,0.11654853820800781,0,0,0
340944258,d4:22:cd:00:30:92,0.6333338618278503,-0.008125992491841316,-0.002126977313309908,-0.773833155632019,-0.05416788533329964,-0.22065894305706024,0.033463478088378906,0,0,0
340960925,d4:22:cd:00:30:92,0.6341782808303833,-0.006880039349198341,-0.002501838840544224,-0.773152232170105,-0.028165265917778015,-0.007206613197922707,0.11026191711425781,0,0,0
340977592,d4:22:cd:00:30:92,0.6345055103302002,-0.006313882302492857,-0.0024099862203001976,-0.7728888988494873,0.05978580564260483,-0.0725673958659172,0.1614694595336914,0,0,0
340994259,d4:22:cd:00:30:92,0.6352455615997314,-0.007243326399475336,-0.0025575729086995125,-0.772271990776062,0.018933575600385666,-0.0007026548846624792,0.1147756576538086,0,0,0
341010926,d4:22:cd:00:30:92,0.6361764073371887,-0.0073611498810350895,-0.002681979676708579,-0.7715039253234863,-0.036814384162425995,0.08484071493148804,0.07610511779785156,0,0,0
341027593,d4:22:cd:00:30:92,0.6369562149047852,-0.007198731414973736,-0.002637410769239068,-0.7708620429039001,-0.016016319394111633,0.03998247906565666,0.07917976379394531,0,0,0
341044260,d4:22:cd:00:30:92,0.6372300982475281,-0.006552702281624079,-0.0023633402306586504,-0.7706421613693237,0.026402708142995834,0.13503004610538483,0.11497020721435547,0,0,0
341060927,d4:22:cd:00:30:92,0.6372854709625244,-0.00626260694116354,-0.0018893530359491706,-0.7706001400947571,0.041825369000434875,0.1427004635334015,0.09069061279296875,0,0,0
341077594,d4:22:cd:00:30:92,0.6372264623641968,-0.007445935159921646,-0.0014676047721877694,-0.7706393599510193,0.07861588895320892,0.09205660223960876,0.1467599868774414,0,0,0
341094261,d4:22:cd:00:30:92,0.6369017362594604,-0.008660988882184029,-0.0009444528259336948,-0.7708959579467773,-0.020348157733678818,-0.01184628065675497,0.08380699157714844,0,0,0
341110928,d4:22:cd:00:30:92,0.6366763710975647,-0.009059347212314606,-0.0008209627703763545,-0.771077573299408,-0.059264153242111206,-0.016111208125948906,0.033455848693847656,0,0,0
341127595,d4:22:cd:00:30:92,0.636695146560669,-0.009040693752467632,-0.000932502094656229,-0.7710621356964111,-0.0016574433539062738,0.014533360488712788,0.08825206756591797,0,0,0
341144262,d4:22:cd:00:30:92,0.6362802982330322,-0.009011288173496723,-0.0010620004031807184,-0.7714046239852905,0.014048091135919094,0.040111955255270004,0.1012887954711914,0,0,0
341160929,d4:22:cd:00:30:92,0.6358372569084167,-0.009007059037685394,-0.0009892527014017105,-0.7717700004577637,0.0037192818708717823,-0.010335154831409454,0.10841178894042969,0,0,0
341177596,d4:22:cd:00:30:92,0.6355481743812561,-0.008980315178632736,-0.0007734859827905893,-0.7720088362693787,-0.0032488005235791206,-0.03280578553676605,0.099578857421875,0,0,0
341194263,d4:22:cd:00:30:92,0.6350420713424683,-0.008769924752414227,-0.00044435911695472896,-0.7724277377128601,0.009337281808257103,0.08285003155469894,0.09489822387695312,0,0,0
341210930,d4:22:cd:00:30:92,0.6337722539901733,-0.008441012352705002,-0.00016418025188613683,-0.7734736800193787,-0.1459178477525711,0.15073519945144653,0.0881500244140625,0,0,0
341227597,d4:22:cd:00:30:92,0.632590115070343,-0.008408580906689167,-0.00017636638949625194,-0.7744412422180176,-0.027162589132785797,0.06902380287647247,0.08860111236572266,0,0,0
341244264,d4:22:cd:00:30:92,0.6312897205352783,-0.008364721201360226,-0.0001952266611624509,-0.77550208568573,-0.029955701902508736,0.0388072170317173,0.09361457824707031,0,0,0
341260931,d4:22:cd:00:30:92,0.6299118399620056,-0.008292362093925476,-0.00020852568559348583,-0.7766225934028625,0.03568845987319946,-0.014638418331742287,0.09906482696533203,0,0,0
341277598,d4:22:cd:00:30:92,0.6288582682609558,-0.008087956346571445,-0.00023164742742665112,-0.777478039264679,0.12507352232933044,-0.14976917207241058,0.08415889739990234,0,0,0
341294265,d4:22:cd:00:30:92,0.6274823546409607,-0.007818419486284256,-0.0002840220695361495,-0.7785915732383728,-0.061602454632520676,0.07278048992156982,0.09844398498535156,0,0,0
341310932,d4:22:cd:00:30:92,0.6261616349220276,-0.007817259058356285,-0.0003220066719222814,-0.7796541452407837,0.0320855937898159,-0.001082221744582057,0.10005378723144531,0,0,0
341327599,d4:22:cd:00:30:92,0.6244504451751709,-0.007897199131548405,-0.0003556614101398736,-0.7810246348381042,0.06186225265264511,-0.000845137401483953,0.10933494567871094,0,0,0
341344266,d4:22:cd:00:30:92,0.6224324107170105,-0.008028264157474041,-0.0003800399717874825,-0.7826324105262756,0.02656037174165249,0.00009125615179073066,0.09502410888671875,0,0,0
341360933,d4:22:cd:00:30:92,0.6202259063720703,-0.008040823973715305,-0.0004246389726176858,-0.7843820452690125,-0.0014072323683649302,0.00409364327788353,0.0859994888305664,0,0,0
341377600,d4:22:cd:00:30:92,0.6179948449134827,-0.008107667788863182,-0.0004788621445186436,-0.7861401438713074,-0.01467496994882822,0.021304309368133545,0.09549713134765625,0,0,0
341394267,d4:22:cd:00:30:92,0.6154205203056335,-0.008088468573987484,-0.0005275645526126027,-0.7881572842597961,0.0036907964386045933,0.0682997927069664,0.0985250473022461,0,0,0
341410934,d4:22:cd:00:30:92,0.6125637292861938,-0.008091061376035213,-0.0005840116646140814,-0.7903795838356018,-0.0030139160808175802,-0.006815929897129536,0.09086990356445312,0,0,0
341427601,d4:22:cd:00:30:92,0.6101613640785217,-0.008131593465805054,-0.0006390394410118461,-0.792235255241394,-0.01506969053298235,-0.03181564435362816,0.10585975646972656,0,0,0
341444268,d4:22:cd:00:30:92,0.6075195670127869,-0.008126440457999706,-0.0006896561244502664,-0.7942630052566528,0.005361597053706646,0.06869016587734222,0.1065225601196289,0,0,0
341460935,d4:22:cd:00:30:92,0.604164719581604,-0.008101769722998142,-0.0007256743847392499,-0.79681795835495,-0.0018151809927076101,0.0340115949511528,0.08243942260742188,0,0,0
341477602,d4:22:cd:00:30:92,0.6011366844177246,-0.008072935976088047,-0.0007726940093562007,-0.799105167388916,-0.00020156196842435747,-0.014636047184467316,0.09552288055419922,0,0,0
341494269,d4:22:cd:00:30:92,0.5982881784439087,-0.008029048331081867,-0.0008400932420045137,-0.8012404441833496,-0.007060641888529062,0.031759586185216904,0.0944814682006836,0,0,0
341510936,d4:22:cd:00:30:92,0.5949997305870056,-0.007983795367181301,-0.0009067628998309374,-0.8036856651306152,-0.01339807454496622,0.01793845184147358,0.10851287841796875,0,0,0
341527603,d4:22:cd:00:30:92,0.5918638110160828,-0.007953645661473274,-0.000995835056528449,-0.8059980869293213,-0.0003006668412126601,0.011079316958785057,0.08879566192626953,0,0,0
341544270,d4:22:cd:00:30:92,0.5884657502174377,-0.007982817478477955,-0.0011109336046501994,-0.8084819912910461,-0.011308714747428894,0.0465468168258667,0.08861255645751953,0,0,0
341560937,d4:22:cd:00:30:92,0.5845043063163757,-0.007950341328978539,-0.0011846720008179545,-0.8113507628440857,-0.018752461299300194,0.06957924365997314,0.0945730209350586,0,0,0
341577604,d4:22:cd:00:30:92,0.5795938968658447,-0.007787090726196766,-0.0011602021986618638,-0.814867377281189,-0.006313295569270849,0.010774284601211548,0.1025857925415039,0,0,0
341594271,d4:22:cd:00:30:92,0.5753018856048584,-0.007810545619577169,-0.0012954133562743664,-0.8179028630256653,-0.004792241379618645,0.006731375586241484,0.09246635437011719,0,0,0
341610938,d4:22:cd:00:30:92,0.5706777572631836,-0.00788215734064579,-0.0015133145498111844,-0.8211349844932556,-0.014996420592069626,0.017488306388258934,0.11401653289794922,0,0,0
341627605,d4:22:cd:00:30:92,0.5656315684318542,-0.007924041710793972,-0.001706092618405819,-0.8246182203292847,-0.015345068648457527,0.05570008605718613,0.09030914306640625,0,0,0
341644272,d4:22:cd:00:30:92,0.5602564215660095,-0.007908761501312256,-0.0018346996512264013,-0.8282794952392578,-0.011649752967059612,0.05502161756157875,0.09083271026611328,0,0,0
341660939,d4:22:cd:00:30:92,0.5524467825889587,-0.007630118168890476,-0.0016998967621475458,-0.833511471748352,0.026441244408488274,0.22671012580394745,0.095794677734375,0,0,0
341677606,d4:22:cd:00:30:92,0.541783332824707,-0.0063872383907437325,-0.001799920224584639,-0.8404921889305115,-0.10008407384157181,0.09613332897424698,0.0022726058959960938,0,0,0
341694273,d4:22:cd:00:30:92,0.5299756526947021,-0.004986211191862822,-0.0022616656497120857,-0.8479952216148376,-0.02275889739394188,-0.2932373285293579,0.21659183502197266,0,0,0
341710940,d4:22:cd:00:30:92,0.5196285843849182,-0.005494073498994112,-0.002256525680422783,-0.8543716669082642,0.021916842088103294,0.012040004134178162,0.11880111694335938,0,0,0
341727607,d4:22:cd:00:30:92,0.5093225836753845,-0.006291471887379885,-0.002216800581663847,-0.8605499267578125,0.07612582296133041,0.21600030362606049,0.09158706665039062,0,0,0
341744274,d4:22:cd:00:30:92,0.4981364905834198,-0.006682641338557005,-0.0024832135532051325,-0.8670694828033447,0.007230106275528669,0.22765043377876282,0.03004169464111328,0,0,0
341760941,d4:22:cd:00:30:92,0.4854494035243988,-0.006500712595880032,-0.0025816624984145164,-0.8742369413375854,-0.027938421815633774,0.049502529203891754,0.07156753540039062,0,0,0
341777608,d4:22:cd:00:30:92,0.4740487337112427,-0.006478474009782076,-0.0031978345941752195,-0.880469024181366,-0.0854191929101944,-0.046955399215221405,0.08394241333007812,0,0,0
341794275,d4:22:cd:00:30:92,0.46347576379776,-0.006607021205127239,-0.0043421401642262936,-0.8860744833946228,-0.06051057204604149,0.03280913457274437,0.0997314453125,0,0,0
341810942,d4:22:cd:00:30:92,0.451869934797287,-0.006677456200122833,-0.005170102696865797,-0.8920438289642334,-0.00604975176975131,0.0798579677939415,0.11806106567382812,0,0,0
341827609,d4:22:cd:00:30:92,0.4394828677177429,-0.006350885145366192,-0.0057472242042422295,-0.8982102274894714,-0.12545284628868103,0.041706379503011703,0.038062095642089844,0,0,0
341844276,d4:22:cd:00:30:92,0.4272185266017914,-0.0048272451385855675,-0.007127461489289999,-0.9041075706481934,-0.11724025756120682,0.025080405175685883,0.043285369873046875,0,0,0
341860943,d4:22:cd:00:30:92,0.41570353507995605,-0.0031129124108701944,-0.008869036100804806,-0.9094516038894653,-0.08763918280601501,-0.046124547719955444,0.11761951446533203,0,0,0
341877610,d4:22:cd:00:30:92,0.4049402177333832,-0.0023320948239415884,-0.010036660358309746,-0.9142851233482361,0.019948890432715416,0.05580183491110802,0.14472389221191406,0,0,0
341894277,d4:22:cd:00:30:92,0.39417344331741333,-0.0019643332343548536,-0.01074861828237772,-0.9189712405204773,-0.01473257690668106,0.08038434386253357,0.1256389617919922,0,0,0
341910944,d4:22:cd:00:30:92,0.38406437635421753,-0.0023420986253768206,-0.01164157036691904,-0.9232301115989685,-0.09677006304264069,0.03035559505224228,0.06874561309814453,0,0,0
341927611,d4:22:cd:00:30:92,0.3746868073940277,-0.0036632090341299772,-0.011892784386873245,-0.9270680546760559,0.028042329475283623,-0.007226896937936544,0.22268390655517578,0,0,0
341944278,d4:22:cd:00:30:92,0.3652215003967285,-0.004715983755886555,-0.01134895347058773,-0.9308396577835083,-0.15191611647605896,0.05386941507458687,0.029465675354003906,0,0,0
341960945,d4:22:cd:00:30:92,0.3565584123134613,-0.004851106088608503,-0.011360736563801765,-0.9341913461685181,-0.13488520681858063,0.054339632391929626,0.03935050964355469,0,0,0
341977612,d4:22:cd:00:30:92,0.3481931686401367,-0.004846580792218447,-0.011436291970312595,-0.9373405575752258,-0.08298023790121078,0.0426030158996582,0.1048126220703125,0,0,0
341994279,d4:22:cd:00:30:92,0.34028103947639465,-0.004315174650400877,-0.011856072582304478,-0.9402392506599426,-0.08000817894935608,0.11007105559110641,0.07780742645263672,0,0,0
342010946,d4:22:cd:00:30:92,0.3322986662387848,-0.003973838407546282,-0.012160316109657288,-0.9430875182151794,-0.10150154680013657,0.016899028792977333,0.10370349884033203,0,0,0
342027613,d4:22:cd:00:30:92,0.3247160017490387,-0.003822238417342305,-0.012350182980298996,-0.9457233548164368,-0.027041789144277573,0.1067037433385849,0.11451244354248047,0,0,0
342044280,d4:22:cd:00:30:92,0.3166489005088806,-0.003940709866583347,-0.012353861704468727,-0.9484542012214661,-0.08057894557714462,0.0764850601553917,0.09071826934814453,0,0,0
342060947,d4:22:cd:00:30:92,0.30889859795570374,-0.004085943102836609,-0.012331269681453705,-0.9510063529014587,-0.07653351873159409,0.09810540825128555,0.0950632095336914,0,0,0
342077614,d4:22:cd:00:30:92,0.30062007904052734,-0.004457763861864805,-0.012124503031373024,-0.9536566138267517,0.06334604322910309,0.23461073637008667,0.10739994049072266,0,0,0
342094281,d4:22:cd:00:30:92,0.2899937927722931,-0.004349602852016687,-0.012255271896719933,-0.9569401741027832,0.10754521191120148,0.4444655478000641,0.03553485870361328,0,0,0
342110948,d4:22:cd:00:30:92,0.2762187421321869,-0.00335024599917233,-0.0130766611546278,-0.9609999656677246,-0.24328382313251495,0.1397070735692978,0.07995986938476562,0,0,0
342127615,d4:22:cd:00:30:92,0.2653575837612152,-0.002822770271450281,-0.013542594388127327,-0.964050829410553,-0.20550177991390228,-0.3546401560306549,0.09572982788085938,0,0,0
342144282,d4:22:cd:00:30:92,0.256330281496048,-0.002754386980086565,-0.013678940013051033,-0.9664885401725769,-0.08084972202777863,0.02508978359401226,0.15333938598632812,0,0,0
342160949,d4:22:cd:00:30:92,0.24832075834274292,-0.003022391116246581,-0.013541172258555889,-0.9685785174369812,-0.11350002139806747,0.06527577340602875,0.08548831939697266,0,0,0
342177616,d4:22:cd:00:30:92,0.2404259592294693,-0.0031252370681613684,-0.013518907129764557,-0.9705684185028076,-0.07919762283563614,0.12430249899625778,0.08510398864746094,0,0,0
342194283,d4:22:cd:00:30:92,0.23144368827342987,-0.0032297023572027683,-0.013494155369699001,-0.9727494716644287,-0.030304772779345512,0.1667993813753128,0.10385513305664062,0,0,0
342210950,d4:22:cd:00:30:92,0.2214164137840271,-0.0026518716476857662,-0.014006029814481735,-0.9750753045082092,-0.17145276069641113,0.1648646891117096,0.013303756713867188,0,0,0
342227617,d4:22:cd:00:30:92,0.21264579892158508,-0.0016793622635304928,-0.01484048180282116,-0.9770152568817139,-0.14751148223876953,0.03033692017197609,0.13597869873046875,0,0,0
342244284,d4:22:cd:00:30:92,0.20477047562599182,-0.0016430426621809602,-0.014935605227947235,-0.97869473695755,-0.09756835550069809,0.08013787120580673,0.12120819091796875,0,0,0
342260951,d4:22:cd:00:30:92,0.19795972108840942,-0.0016469383845105767,-0.015010149218142033,-0.9800939559936523,-0.11289530247449875,0.10812031477689743,0.09488105773925781,0,0,0
342277618,d4:22:cd:00:30:92,0.19078673422336578,-0.001568758743815124,-0.01512566115707159,-0.9815139174461365,-0.08121850341558456,0.1335725039243698,0.09995365142822266,0,0,0
342294285,d4:22:cd:00:30:92,0.1826927363872528,-0.0014940707478672266,-0.015224853530526161,-0.9830511212348938,-0.2806076407432556,0.1784881353378296,0.08760547637939453,0,0,0
342310952,d4:22:cd:00:30:92,0.17592671513557434,-0.0014797914773225784,-0.015289093367755413,-0.9842835664749146,-0.22201301157474518,0.10400156676769257,0.10030364990234375,0,0,0
342327619,d4:22:cd:00:30:92,0.16959720849990845,-0.0014614956453442574,-0.015366990119218826,-0.9853926301002502,-0.1117585152387619,0.20544379949569702,0.09172344207763672,0,0,0
342344286,d4:22:cd:00:30:92,0.16309694945812225,-0.0014192907838150859,-0.015441388823091984,-0.9864882230758667,-0.09040757268667221,0.30771878361701965,0.08726024627685547,0,0,0
342360953,d4:22:cd:00:30:92,0.15565666556358337,-0.0013746776385232806,-0.015522975474596024,-0.9876883029937744,-0.07318656891584396,0.3493281602859497,0.09106826782226562,0,0,0
342377620,d4:22:cd:00:30:92,0.1476982682943344,-0.0013280680868774652,-0.015596036799252033,-0.9889087677001953,-0.06532464921474457,0.2519892454147339,0.09109973907470703,0,0,0
342394287,d4:22:cd:00:30:92,0.13956090807914734,-0.0012938863364979625,-0.01566990651190281,-0.9900887608528137,0.029333818703889847,0.1840706169605255,0.07767868041992188,0,0,0
342410954,d4:22:cd:00:30:92,0.1286819726228714,-0.0012101316824555397,-0.015777120366692543,-0.9915597438812256,0.19640731811523438,0.28150564432144165,0.0806436538696289,0,0,0
342427621,d4:22:cd:00:30:92,0.10996071994304657,-0.0010954783065244555,-0.015910251066088676,-0.9938079714775085,0.8523911237716675,0.47523877024650574,0.06845474243164062,0,0,0
342444288,d4:22:cd:00:30:92,0.09076081216335297,-0.0002215110434917733,-0.015244651585817337,-0.9957560300827026,-0.3345326781272888,-0.18083620071411133,0.15068912506103516,0,0,0
342460955,d4:22:cd:00:30:92,0.07621755450963974,0.0006376415840350091,-0.014274238608777523,-0.9969889521598816,-0.23280009627342224,0.18928802013397217,0.09236812591552734,0,0,0
342477622,d4:22:cd:00:30:92,0.0575532503426075,0.001740050152875483,-0.012891805730760098,-0.9982577562332153,0.5132635831832886,0.4564160406589508,0.11851310729980469,0,0,0
342494289,d4:22:cd:00:30:92,0.034942690283060074,0.002178085735067725,-0.012237018905580044,-0.9993121027946472,0.07082228362560272,0.007407211698591709,-0.039681434631347656,0,0,0
342510956,d4:22:cd:00:30:92,0.019876834005117416,0.0017675334820523858,-0.01370647456496954,-0.9997069835662842,-1.6641215085983276,-0.7216042876243591,0.1026611328125,0,0,0
342527623,d4:22:cd:00:30:92,0.016656484454870224,0.0004921758081763983,-0.015695253387093544,-0.9997380375862122,-0.2864617705345154,0.2114415168762207,0.031152725219726562,0,0,0
342544290,d4:22:cd:00:30:92,0.012338308617472649,-0.0005900918622501194,-0.016919346526265144,-0.9997807741165161,-0.0317307785153389,0.09479731321334839,0.21624088287353516,0,0,0
342560957,d4:22:cd:00:30:92,0.007779830601066351,-0.0007258631521835923,-0.01698112115263939,-0.9998252987861633,-0.25124162435531616,0.16523176431655884,0.08211803436279297,0,0,0
342577624,d4:22:cd:00:30:92,0.004616025369614363,-0.0007274200324900448,-0.01704212836921215,-0.9998438954353333,-0.03408171981573105,0.3073042333126068,0.09294700622558594,0,0,0
342594291,d4:22:cd:00:30:92,0.0011676889844238758,-0.0007253304938785732,-0.017110532149672508,-0.9998527765274048,-0.04115298390388489,0.3723413348197937,0.0886678695678711,0,0,0
342610958,d4:22:cd:00:30:92,-0.00240059825591743,-0.0007002978818491101,-0.017151840031147003,-0.9998498558998108,0.025157293304800987,0.40005505084991455,0.08361148834228516,0,0,0
342627625,d4:22:cd:00:30:92,-0.007441036868840456,-0.0006576089654117823,-0.01718553714454174,-0.999824583530426,0.09087962657213211,0.5752770900726318,0.08582878112792969,0,0,0
342644292,d4:22:cd:00:30:92,-0.012570993043482304,-0.0006318208179436624,-0.017236698418855667,-0.9997722506523132,-0.2171783298254013,0.1706319898366928,0.09147167205810547,0,0,0
342660959,d4:22:cd:00:30:92,-0.01747833378612995,-0.0006159401964396238,-0.0172741636633873,-0.9996979236602783,-0.16800686717033386,0.09980811178684235,0.09563922882080078,0,0,0
342677626,d4:22:cd:00:30:92,-0.02184714935719967,-0.0005947456229478121,-0.017308104783296585,-0.9996113181114197,-0.24118967354297638,0.0132565563544631,0.09701061248779297,0,0,0
342694293,d4:22:cd:00:30:92,-0.02574220672249794,-0.0005773524753749371,-0.01734757050871849,-0.9995179772377014,-0.13316620886325836,0.1441156566143036,0.09370613098144531,0,0,0
342710960,d4:22:cd:00:30:92,-0.03171838819980621,-0.0004950771690346301,-0.01736552268266678,-0.9993460178375244,0.14305002987384796,0.41931238770484924,0.07848072052001953,0,0,0
342727627,d4:22:cd:00:30:92,-0.03987417370080948,-0.0003301077813375741,-0.017399165779352188,-0.9990531802177429,0.07185490429401398,0.10952761024236679,0.08940601348876953,0,0,0
342744294,d4:22:cd:00:30:92,-0.04835433140397072,-0.0002352498850086704,-0.017438014969229698,-0.9986780881881714,-0.1210712119936943,0.0944225937128067,0.11233997344970703,0,0,0
342760961,d4:22:cd:00:30:92,-0.056697845458984375,0.00004823982817470096,-0.017294399440288544,-0.998241662979126,0.01807369478046894,0.23464177548885345,0.12659072875976562,0,0,0
342777628,d4:22:cd:00:30:92,-0.0688268169760704,0.002087376778945327,-0.015084274113178253,-0.9975124001502991,0.23490974307060242,0.5375534296035767,0.18976497650146484,0,0,0
342794295,d4:22:cd:00:30:92,-0.08451376855373383,0.0030194141436368227,-0.014047015458345413,-0.9963187575340271,0.1248566135764122,-0.16474305093288422,-0.06511592864990234,0,0,0
342810962,d4:22:cd:00:30:92,-0.09351583570241928,0.0025870399549603462,-0.014855296351015568,-0.9955037236213684,-1.150970458984375,-0.14402587711811066,0.07512664794921875,0,0,0
342827629,d4:22:cd:00:30:92,-0.09743195027112961,0.0015943530015647411,-0.016122987493872643,-0.9951105713844299,0.07437624782323837,0.23416970670223236,0.09020614624023438,0,0,0
342844296,d4:22:cd:00:30:92,-0.10737846046686172,0.0014894797932356596,-0.01637682132422924,-0.9940822124481201,0.1348792165517807,0.14678770303726196,0.16027450561523438,0,0,0
342860963,d4:22:cd:00:30:92,-0.11843001842498779,0.002205628203228116,-0.01573164388537407,-0.992835283279419,-0.21725432574748993,0.22488349676132202,0.08399391174316406,0,0,0
342877630,d4:22:cd:00:30:92,-0.12440625578165054,0.0018797399243339896,-0.0161915086209774,-0.9920975565910339,-0.43551793694496155,0.3039109706878662,0.013302803039550781,0,0,0
342894297,d4:22:cd:00:30:92,-0.12467193603515625,0.00016060323105193675,-0.017941150814294815,-0.9920359253883362,-0.15057829022407532,0.2630871534347534,0.05727958679199219,0,0,0
342910964,d4:22:cd:00:30:92,-0.1247154250741005,-0.000017645817933953367,-0.018099045380949974,-0.9920274615287781,-0.18161025643348694,0.16770710051059723,0.16774368286132812,0,0,0
342927631,d4:22:cd:00:30:92,-0.12471681088209152,-0.000058916637499351054,-0.018137166276574135,-0.9920265674591064,-0.09048949927091599,0.22885534167289734,0.10066413879394531,0,0,0
342944298,d4:22:cd:00:30:92,-0.12471343576908112,-0.00008640328451292589,-0.018174000084400177,-0.9920263290405273,-0.08197905868291855,0.22295178472995758,0.09802818298339844,0,0,0
342960965,d4:22:cd:00:30:92,-0.12721072137355804,-0.000060542806750163436,-0.01816854439675808,-0.991709291934967,0.19483701884746552,0.6300590634346008,0.0775136947631836,0,0,0
342977632,d4:22:cd:00:30:92,-0.1333598792552948,0.00002181591116823256,-0.018123697489500046,-0.9909019470214844,0.10216549783945084,0.3891862630844116,0.09585094451904297,0,0,0
342994299,d4:22:cd:00:30:92,-0.13729853928089142,0.000072873430326581,-0.0181229580193758,-0.9903638958930969,-0.4955112338066101,0.0013999664224684238,0.0975942611694336,0,0,0
343010966,d4:22:cd:00:30:92,-0.13872715830802917,0.0000166241115948651,-0.018190018832683563,-0.9901635646820068,-0.07740669697523117,0.0007221445557661355,0.09744739532470703,0,0,0
343027633,d4:22:cd:00:30:92,-0.1391964703798294,-0.000006689060683129355,-0.018221415579319,-0.990097165107727,-0.09920301288366318,0.22047655284404755,0.09545135498046875,0,0,0
343044300,d4:22:cd:00:30:92,-0.13921287655830383,-0.000024549166482756846,-0.018234295770525932,-0.9900946021080017,-0.08915597945451736,0.22739283740520477,0.09837150573730469,0,0,0
343060967,d4:22:cd:00:30:92,-0.13833174109458923,-0.0000644808606011793,-0.01823180727660656,-0.9902182221412659,-0.047080330550670624,0.2759143114089966,0.08153057098388672,0,0,0
343077634,d4:22:cd:00:30:92,-0.13725510239601135,-0.00007666025339858606,-0.018199454993009567,-0.990368664264679,0.054314032196998596,0.33632582426071167,0.09308624267578125,0,0,0
343094301,d4:22:cd:00:30:92,-0.13559448719024658,-0.00007461321365553886,-0.018175849691033363,-0.9905977845191956,-0.19075189530849457,0.2243151217699051,0.08873939514160156,0,0,0
343110968,d4:22:cd:00:30:92,-0.1331135332584381,-0.00010985008702846244,-0.01815103180706501,-0.9909346699714661,-0.13665324449539185,0.17210304737091064,0.08868598937988281,0,0,0
343127635,d4:22:cd:00:30:92,-0.13177336752414703,-0.00012552578118629754,-0.018127664923667908,-0.9911141991615295,-0.08495859801769257,0.22158217430114746,0.08301639556884766,0,0,0
343144302,d4:22:cd:00:30:92,-0.13113655149936676,-0.00013906642561778426,-0.018118180334568024,-0.9911988377571106,-0.09166992455720901,0.21403710544109344,0.08268260955810547,0,0,0
343160969,d4:22:cd:00:30:92,-0.1306515783071518,-0.00014517884119413793,-0.018113620579242706,-0.9912629127502441,-0.09667537361383438,0.2511391043663025,0.08532524108886719,0,0,0
343177636,d4:22:cd:00:30:92,-0.1288994997739792,-0.00015795363287907094,-0.01810562238097191,-0.9914924502372742,-0.08673856407403946,0.24905553460121155,0.08907222747802734,0,0,0
343194303,d4:22:cd:00:30:92,-0.12815602123737335,-0.00015447572513949126,-0.01809215545654297,-0.9915891289710999,-0.06576016545295715,0.22274060547351837,0.0876007080078125,0,0,0
343210970,d4:22:cd:00:30:92,-0.1287548691034317,-0.00011786381946876645,-0.018080037087202072,-0.9915117025375366,0.008772444911301136,0.4540669023990631,0.08907413482666016,0,0,0
343227637,d4:22:cd:00:30:92,-0.130548357963562,-0.00006528665107907727,-0.018028656020760536,-0.9912780523300171,0.09315875917673111,0.3537561595439911,0.09595966339111328,0,0,0
343244304,d4:22:cd:00:30:92,-0.1314469873905182,0.000033861142583191395,-0.017942851409316063,-0.9911608695983887,-0.1950487494468689,0.12379667162895203,0.1011972427368164,0,0,0
343260971,d4:22:cd:00:30:92,-0.1310434192419052,-0.000017138396287919022,-0.01796894334256649,-0.9912137985229492,-0.1817249059677124,0.1885911375284195,0.07883644104003906,0,0,0
343277638,d4:22:cd:00:30:92,-0.13011805713176727,-0.00006966848741285503,-0.018006185069680214,-0.9913349747657776,-0.08304313570261002,0.23233620822429657,0.09727859497070312,0,0,0
343294305,d4:22:cd:00:30:92,-0.12946964800357819,-0.0000907919165911153,-0.01799805834889412,-0.9914201498031616,-0.0607786625623703,0.189365953207016,0.08748531341552734,0,0,0
343310972,d4:22:cd:00:30:92,-0.12980248034000397,-0.00006972740811761469,-0.01796315424144268,-0.9913772344589233,-0.11189737170934677,0.16738805174827576,0.0943756103515625,0,0,0
343327639,d4:22:cd:00:30:92,-0.129638209939003,-0.000051628987421281636,-0.017935534939169884,-0.9913992285728455,-0.12316515296697617,0.2152663916349411,0.10835075378417969,0,0,0
343344306,d4:22:cd:00:30:92,-0.1295674443244934,-0.000002010166326726903,-0.017880944535136223,-0.991409420967102,-0.0707724317908287,0.2211160808801651,0.0958700180053711,0,0,0
343360973,d4:22:cd:00:30:92,-0.12953311204910278,0.000024698420020285994,-0.017862148582935333,-0.9914141893386841,-0.08671674132347107,0.2263081818819046,0.08091926574707031,0,0,0
343377640,d4:22:cd:00:30:92,-0.1291968822479248,0.00021580664906650782,-0.017692377790808678,-0.9914612174034119,-0.0975990891456604,0.22022338211536407,0.11122894287109375,0,0,0
343394307,d4:22:cd:00:30:92,-0.12915894389152527,0.0006489158840849996,-0.01728200912475586,-0.9914732575416565,-0.08834902942180634,0.22540271282196045,0.10946178436279297,0,0,0
343410974,d4:22:cd:00:30:92,-0.12930017709732056,0.0011760906782001257,-0.016742266714572906,-0.9914635419845581,-0.04486308619379997,0.2260170727968216,0.08462333679199219,0,0,0
343427641,d4:22:cd:00:30:92,-0.13061895966529846,0.00154211709741503,-0.016366656869649887,-0.9912963509559631,-0.02754431776702404,0.23190359771251678,0.0940847396850586,0,0,0
343444308,d4:22:cd:00:30:92,-0.1319076418876648,0.001926881610415876,-0.015953198075294495,-0.9911319017410278,-0.11203208565711975,0.24164661765098572,0.08886241912841797,0,0,0
343460975,d4:22:cd:00:30:92,-0.13216716051101685,0.0020981687121093273,-0.015741100534796715,-0.9911003708839417,-0.1275779753923416,0.232198566198349,0.08931922912597656,0,0,0
343477642,d4:22:cd:00:30:92,-0.13219493627548218,0.002279897453263402,-0.015521014109253883,-0.9910996556282043,-0.08131666481494904,0.223771333694458,0.11276817321777344,0,0,0
343494309,d4:22:cd:00:30:92,-0.1326785385608673,0.0025093748699873686,-0.015142545104026794,-0.9910403490066528,-0.038761116564273834,0.20367252826690674,0.11459636688232422,0,0,0
343510976,d4:22:cd:00:30:92,-0.1337459534406662,0.0020530009642243385,-0.013996919617056847,-0.9909147620201111,0.006053874734789133,0.16216035187244415,0.13775348663330078,0,0,0
343527643,d4:22:cd:00:30:92,-0.13450773060321808,0.00021109485533088446,-0.012204800732433796,-0.9908373951911926,-0.13031494617462158,0.23838676512241364,0.08714771270751953,0,0,0
343544310,d4:22:cd:00:30:92,-0.13386626541614532,-0.00013584340922534466,-0.011770784854888916,-0.9909295439720154,-0.278594970703125,0.3580012917518616,-0.02124500274658203,0,0,0
343560977,d4:22:cd:00:30:92,-0.13249479234218597,0.0004005034570582211,-0.012200010009109974,-0.9911085367202759,-0.05871665105223656,0.1997126042842865,0.10192680358886719,0,0,0
343577644,d4:22:cd:00:30:92,-0.13214834034442902,0.0003811740898527205,-0.012026302516460419,-0.991157054901123,-0.005008422303944826,0.18101222813129425,0.13917827606201172,0,0,0
343594311,d4:22:cd:00:30:92,-0.1324184387922287,0.0005942073767073452,-0.01147344708442688,-0.9911273717880249,-0.10723914206027985,0.23600874841213226,0.08116626739501953,0,0,0
343610978,d4:22:cd:00:30:92,-0.13205716013908386,0.001175777055323124,-0.011369547806680202,-0.9911763072013855,-0.15774697065353394,0.25529956817626953,0.060952186584472656,0,0,0
343627645,d4:22:cd:00:30:92,-0.13110195100307465,0.0025385678745806217,-0.011871226131916046,-0.9912946820259094,-0.12472285330295563,0.2785801291465759,0.053391456604003906,0,0,0
343644312,d4:22:cd:00:30:92,-0.13001181185245514,0.0035262196324765682,-0.012843052856624126,-0.9914231300354004,-0.001715439255349338,0.19388949871063232,0.10786151885986328,0,0,0
343660979,d4:22:cd:00:30:92,-0.12924829125404358,0.0034981186036020517,-0.012934031896293163,-0.9915217757225037,-0.10038790851831436,0.2067844569683075,0.10917854309082031,0,0,0
343677646,d4:22:cd:00:30:92,-0.12817272543907166,0.003478635335341096,-0.012999512255191803,-0.9916605949401855,-0.07185596972703934,0.2160114347934723,0.105224609375,0,0,0
343694313,d4:22:cd:00:30:92,-0.1275637298822403,0.003483765060082078,-0.01286192238330841,-0.9917408227920532,-0.07358553260564804,0.2280738204717636,0.08091926574707031,0,0,0
343710980,d4:22:cd:00:30:92,-0.12663625180721283,0.003463095985352993,-0.012775136157870293,-0.9918609857559204,-0.09778532385826111,0.2359643578529358,0.09521102905273438,0,0,0
343727647,d4:22:cd:00:30:92,-0.12620529532432556,0.0034550020936876535,-0.012680791318416595,-0.9919171929359436,-0.036821041256189346,0.22008055448532104,0.09296607971191406,0,0,0
343744314,d4:22:cd:00:30:92,-0.1264573037624359,0.003433719975873828,-0.012737755663692951,-0.9918844699859619,-0.011988758109509945,0.24067384004592896,0.08847522735595703,0,0,0
343760981,d4:22:cd:00:30:92,-0.12779973447322845,0.003439785912632942,-0.011325344443321228,-0.9917295575141907,-0.04280879348516464,0.12651501595973969,0.2018451690673828,0,0,0
343777648,d4:22:cd:00:30:92,-0.12931810319423676,0.0020423210225999355,-0.008883066475391388,-0.9915614128112793,0.03085511177778244,0.17395758628845215,0.17509746551513672,0,0,0
343794315,d4:22:cd:00:30:92,-0.13026617467403412,0.00148415204603225,-0.008159354329109192,-0.9914444088935852,-0.20290665328502655,0.4243148863315582,-0.08092594146728516,0,0,0
343810982,d4:22:cd:00:30:92,-0.13043838739395142,0.0015094804111868143,-0.008194200694561005,-0.9914214611053467,-0.17259477078914642,0.1645975112915039,0.10688018798828125,0,0,0
343827649,d4:22:cd:00:30:92,-0.13043203949928284,0.0014911442995071411,-0.008180790580809116,-0.9914224147796631,-0.07866528630256653,0.22420580685138702,0.09340381622314453,0,0,0
343844316,d4:22:cd:00:30:92,-0.13042064011096954,0.0014825679827481508,-0.008152921684086323,-0.9914241433143616,-0.08225635439157486,0.21709944307804108,0.08869743347167969,0,0,0
343860983,d4:22:cd:00:30:92,-0.13006819784641266,0.0014751250855624676,-0.008155249059200287,-0.9914705157279968,-0.13048610091209412,0.21928392350673676,0.1043243408203125,0,0,0
343877650,d4:22:cd:00:30:92,-0.12863323092460632,0.0012908540666103363,-0.007978039793670177,-0.9916594624519348,-0.12230578809976578,0.22757267951965332,0.07904911041259766,0,0,0
343894317,d4:22:cd:00:30:92,-0.1268198937177658,0.001256431802175939,-0.007958480156958103,-0.9918931126594543,-0.07990703731775284,0.2224639654159546,0.09554290771484375,0,0,0
343910984,d4:22:cd:00:30:92,-0.1252603977918625,0.0005898419767618179,-0.008540802635252476,-0.9920870065689087,0.04213935136795044,0.27946707606315613,-0.0017461776733398438,0,0,0
343927651,d4:22:cd:00:30:92,-0.1244421973824501,-0.0009606677340343595,-0.009873248636722565,-0.9921773076057434,-0.0670863464474678,0.1735815405845642,0.137847900390625,0,0,0
343944318,d4:22:cd:00:30:92,-0.12438258528709412,-0.0006465001497417688,-0.009605128318071365,-0.9921876788139343,-0.09729818999767303,0.19795364141464233,0.1018381118774414,0,0,0
343960985,d4:22:cd:00:30:92,-0.12439073622226715,-0.0008164328755810857,-0.009742732159793377,-0.9921851754188538,-0.07533072680234909,0.2260034829378128,0.09072399139404297,0,0,0
343977652,d4:22:cd:00:30:92,-0.12438283115625381,-0.0007640281692147255,-0.009691712446510792,-0.9921866655349731,-0.08042464405298233,0.23093931376934052,0.08119487762451172,0,0,0
343994319,d4:22:cd:00:30:92,-0.12438421696424484,-0.0007880413322709501,-0.009691698476672173,-0.9921865463256836,-0.09198888391256332,0.22083397209644318,0.09009361267089844,0,0,0
344010986,d4:22:cd:00:30:92,-0.12439017742872238,-0.00080455670831725,-0.009697970934212208,-0.9921857118606567,-0.06724760681390762,0.2169659584760666,0.07763004302978516,0,0,0
344027653,d4:22:cd:00:30:92,-0.12439539283514023,-0.0008094398071989417,-0.00969633087515831,-0.9921850562095642,-0.08304482698440552,0.22399546205997467,0.08504295349121094,0,0,0
344044320,d4:22:cd:00:30:92,-0.12439549714326859,-0.0008201503660529852,-0.009684931486845016,-0.9921851754188538,-0.06318600475788116,0.22073593735694885,0.08636283874511719,0,0,0
344060987,d4:22:cd:00:30:92,-0.12439430505037308,-0.0008290595724247396,-0.009685633704066277,-0.9921852946281433,-0.06790410727262497,0.19952812790870667,0.09729385375976562,0,0,0
344077654,d4:22:cd:00:30:92,-0.12438949197530746,-0.0008404162945225835,-0.009683608077466488,-0.9921858906745911,-0.07062841951847076,0.2274799793958664,0.09416484832763672,0,0,0
344094321,d4:22:cd:00:30:92,-0.12439194321632385,-0.0008398867212235928,-0.009682470932602882,-0.9921855926513672,-0.07762695848941803,0.21966545283794403,0.09284114837646484,0,0,0
344110988,d4:22:cd:00:30:92,-0.12439022958278656,-0.0008427372085861862,-0.009675245732069016,-0.9921858310699463,-0.07238095253705978,0.22672167420387268,0.101409912109375,0,0,0
344127655,d4:22:cd:00:30:92,-0.12439322471618652,-0.0008519852417521179,-0.009666143916547298,-0.992185652256012,-0.07375914603471756,0.2152368575334549,0.09858131408691406,0,0,0
344144322,d4:22:cd:00:30:92,-0.12439341098070145,-0.0008606830378994346,-0.009642433375120163,-0.9921858310699463,-0.08224107325077057,0.2087901532649994,0.0876626968383789,0,0,0
344160989,d4:22:cd:00:30:92,-0.12438727170228958,-0.0008783675730228424,-0.009643357247114182,-0.9921865463256836,-0.06945749372243881,0.21656633913516998,0.0935068130493164,0,0,0
344177656,d4:22:cd:00:30:92,-0.12439091503620148,-0.0008732725400477648,-0.00963620189577341,-0.9921861290931702,-0.07464856654405594,0.21723248064517975,0.08826732635498047,0,0,0
344194323,d4:22:cd:00:30:92,-0.12438234686851501,-0.0008783676894381642,-0.009628485888242722,-0.9921872615814209,-0.06274087727069855,0.21262051165103912,0.09552574157714844,0,0,0
344210990,d4:22:cd:00:30:92,-0.12437678128480911,-0.0008888208540156484,-0.00961177609860897,-0.9921882152557373,-0.07891859114170074,0.21593159437179565,0.08595943450927734,0,0,0
344227657,d4:22:cd:00:30:92,-0.12437847256660461,-0.0009035297553054988,-0.009594732895493507,-0.9921881556510925,-0.0775773674249649,0.23381663858890533,0.08490371704101562,0,0,0
344244324,d4:22:cd:00:30:92,-0.12437852472066879,-0.0009121467592194676,-0.009587246924638748,-0.9921882152557373,-0.06818973273038864,0.21157126128673553,0.09489822387695312,0,0,0
344260991,d4:22:cd:00:30:92,-0.12438692152500153,-0.0009252856252714992,-0.009585645981132984,-0.9921871423721313,-0.07460590451955795,0.21878916025161743,0.0917825698852539,0,0,0
344277658,d4:22:cd:00:30:92,-0.1243898943066597,-0.0009363946737721562,-0.009588014334440231,-0.9921867251396179,-0.07637282460927963,0.22499153017997742,0.09770011901855469,0,0,0
344294325,d4:22:cd:00:30:92,-0.12439583241939545,-0.0009415883105248213,-0.0095903929322958,-0.9921858906745911,-0.07393831014633179,0.2098521590232849,0.0846710205078125,0,0,0
344310992,d4:22:cd:00:30:92,-0.12438822537660599,-0.0009436665568500757,-0.009579293429851532,-0.9921870231628418,-0.0753164291381836,0.2184470146894455,0.09946537017822266,0,0,0
344327659,d4:22:cd:00:30:92,-0.12439117580652237,-0.0009535630815662444,-0.009579408913850784,-0.9921866655349731,-0.06762753427028656,0.21792231500148773,0.08625221252441406,0,0,0
344344326,d4:22:cd:00:30:92,-0.12439695745706558,-0.0009587266831658781,-0.009573648683726788,-0.9921860098838806,-0.0712108388543129,0.22085697948932648,0.08744525909423828,0,0,0
344360993,d4:22:cd:00:30:92,-0.1243986040353775,-0.0009607954416424036,-0.009562487713992596,-0.9921858310699463,-0.08341466635465622,0.2215716689825058,0.11094284057617188,0,0,0
344377660,d4:22:cd:00:30:92,-0.1243940219283104,-0.0009698448702692986,-0.0095454016700387,-0.9921865463256836,-0.07900762557983398,0.22492654621601105,0.08603668212890625,0,0,0
344394327,d4:22:cd:00:30:92,-0.12439436465501785,-0.0009754427010193467,-0.009536674246191978,-0.9921865463256836,-0.07844869047403336,0.21013358235359192,0.09259605407714844,0,0,0
344410994,d4:22:cd:00:30:92,-0.12439403682947159,-0.0009829987538978457,-0.009514831937849522,-0.9921869039535522,-0.06734449416399002,0.21282806992530823,0.093109130859375,0,0,0
344427661,d4:22:cd:00:30:92,-0.12439431250095367,-0.000990633969195187,-0.009512575343251228,-0.9921868443489075,-0.0778331309556961,0.2090741991996765,0.09053897857666016,0,0,0
344444328,d4:22:cd:00:30:92,-0.1243947222828865,-0.0010035543236881495,-0.009499131701886654,-0.9921869039535522,-0.09347077459096909,0.2068706899881363,0.1087188720703125,0,0,0
344460995,d4:22:cd:00:30:92,-0.12438984215259552,-0.0010052662109956145,-0.009489049203693867,-0.9921875596046448,-0.06948738545179367,0.21658194065093994,0.09066104888916016,0,0,0
344477662,d4:22:cd:00:30:92,-0.12437813729047775,-0.0010002930648624897,-0.009482885710895061,-0.9921891093254089,-0.07011843472719193,0.21919581294059753,0.09731292724609375,0,0,0
344494329,d4:22:cd:00:30:92,-0.12436620146036148,-0.0010046021779999137,-0.009469974786043167,-0.9921907186508179,-0.06446011364459991,0.2213885337114334,0.0924234390258789,0,0,0
344510996,d4:22:cd:00:30:92,-0.12435953319072723,-0.0010168126318603754,-0.009460809640586376,-0.9921916127204895,-0.07311145216226578,0.22134308516979218,0.10441017150878906,0,0,0
344527663,d4:22:cd:00:30:92,-0.12435977905988693,-0.0010237848618999124,-0.009458353742957115,-0.9921915531158447,-0.06688293069601059,0.20948870480060577,0.09855937957763672,0,0,0
344544330,d4:22:cd:00:30:92,-0.1243601143360138,-0.0010310495272278786,-0.009442430920898914,-0.992191731929779,-0.08485882729291916,0.2240872085094452,0.09493541717529297,0,0,0
344560997,d4:22:cd:00:30:92,-0.12436368316411972,-0.0010343871545046568,-0.009422962553799152,-0.9921914339065552,-0.08013579249382019,0.20945164561271667,0.08598709106445312,0,0,0
344577664,d4:22:cd:00:30:92,-0.12435257434844971,-0.0010432623093947768,-0.009405973367393017,-0.9921929240226746,-0.07417397201061249,0.20833641290664673,0.0940866470336914,0,0,0
344594331,d4:22:cd:00:30:92,-0.12435132265090942,-0.001059351721778512,-0.009384147822856903,-0.9921934008598328,-0.07101432979106903,0.21328161656856537,0.09600257873535156,0,0,0
344610998,d4:22:cd:00:30:92,-0.12435290217399597,-0.0010701484279707074,-0.00937693752348423,-0.9921932816505432,-0.07875162363052368,0.2179473489522934,0.09952259063720703,0,0,0
344627665,d4:22:cd:00:30:92,-0.12407904863357544,-0.0011912024347111583,-0.009443731047213078,-0.9922268390655518,-0.1579648107290268,0.24534793198108673,0.07061290740966797,0,0,0
344644332,d4:22:cd:00:30:92,-0.11431851983070374,-0.0024810272734612226,-0.0103526646271348,-0.9933871030807495,-0.8166539072990417,0.20804919302463531,0.1187601089477539,0,0,0
344660999,d4:22:cd:00:30:92,-0.10057209432125092,-0.0011652898974716663,-0.009224705398082733,-0.9948863983154297,-0.15081952512264252,0.23517902195453644,0.10472774505615234,0,0,0
344677666,d4:22:cd:00:30:92,-0.08713125437498093,-0.0016577577916905284,-0.009291629306972027,-0.9961522221565247,0.06064881384372711,0.20415742695331573,0.04813098907470703,0,0,0
344694333,d4:22:cd:00:30:92,-0.07496926933526993,-0.0016505186213180423,-0.009053456597030163,-0.9971434473991394,-0.007180801592767239,0.1660613715648651,0.11628341674804688,0,0,0
344711000,d4:22:cd:00:30:92,-0.06498327106237411,-0.001791836810298264,-0.008978329598903656,-0.997844398021698,0.08232499659061432,0.1935908943414688,0.09140682220458984,0,0,0
344727667,d4:22:cd:00:30:92,-0.057585105299949646,-0.0018793469062075019,-0.008897251449525356,-0.9982991814613342,0.021523984149098396,0.22004184126853943,0.057457923889160156,0,0,0
344744334,d4:22:cd:00:30:92,-0.0495031476020813,-0.0019738534465432167,-0.008787352591753006,-0.9987333416938782,-0.17925339937210083,0.1527533084154129,0.1513681411743164,0,0,0
344761001,d4:22:cd:00:30:92,-0.043105270713567734,-0.001732712727971375,-0.008390164002776146,-0.9990336894989014,-0.037996821105480194,0.1616310179233551,0.10988616943359375,0,0,0
344777668,d4:22:cd:00:30:92,-0.0331728458404541,-0.0005050856852903962,-0.006614878308027983,-0.9994275569915771,-1.0424549579620361,-0.3856118321418762,0.07396984100341797,0,0,0
344794335,d4:22:cd:00:30:92,-0.018439503386616707,-0.0012266536941751838,-0.006820047274231911,-0.9998061060905457,-0.24612852931022644,-0.050101324915885925,0.04179191589355469,0,0,0
344811002,d4:22:cd:00:30:92,-0.004157824441790581,-0.002436006208881736,-0.007717992644757032,-0.9999586343765259,0.5082016587257385,0.30535003542900085,0.13207721710205078,0,0,0
344827669,d4:22:cd:00:30:92,0.00927512627094984,-0.0028023996856063604,-0.007891494780778885,-0.9999219179153442,-0.015154864639043808,0.15523232519626617,0.05888843536376953,0,0,0
344844336,d4:22:cd:00:30:92,0.026559440419077873,-0.003356531960889697,-0.00827484205365181,-0.9996074438095093,-0.22780153155326843,-0.13256396353244781,0.11736488342285156,0,0,0
344861003,d4:22:cd:00:30:92,0.047750324010849,-0.0036665312945842743,-0.008278550580143929,-0.9988183379173279,-0.19239859282970428,-0.1532912701368332,0.09060382843017578,0,0,0
344877670,d4:22:cd:00:30:92,0.068449966609478,-0.00396806001663208,-0.008310134522616863,-0.9976121187210083,0.1781831979751587,0.3449743986129761,0.0718841552734375,0,0,0
344894337,d4:22:cd:00:30:92,0.088343545794487,-0.004717692267149687,-0.009430321864783764,-0.9960342049598694,-0.12963850796222687,0.39649927616119385,0.03869915008544922,0,0,0
344911004,d4:22:cd:00:30:92,0.1085667833685875,-0.005100813694298267,-0.009890408255159855,-0.9940268993377686,0.05231579765677452,-0.05442170798778534,0.16307830810546875,0,0,0
344927671,d4:22:cd:00:30:92,0.1264079362154007,-0.0052492497488856316,-0.009863287210464478,-0.9919155240058899,0.5121527314186096,0.5191976428031921,0.07331562042236328,0,0,0
344944338,d4:22:cd:00:30:92,0.141837477684021,-0.005325766280293465,-0.010243161581456661,-0.9898226857185364,-0.3168455958366394,0.1918751746416092,0.08639335632324219,0,0,0
344961005,d4:22:cd:00:30:92,0.16019023954868317,-0.005485386122018099,-0.009806185029447079,-0.9870222806930542,0.025149831548333168,0.1855187565088272,0.12032222747802734,0,0,0
344977672,d4:22:cd:00:30:92,0.17301960289478302,-0.0056212302297353745,-0.009452109225094318,-0.9848569631576538,0.1981496661901474,0.31173327565193176,0.08992671966552734,0,0,0
344994339,d4:22:cd:00:30:92,0.1844026744365692,-0.005710612516850233,-0.009315380826592445,-0.9827901124954224,0.013903277926146984,0.07766644656658173,0.09572315216064453,0,0,0
345011006,d4:22:cd:00:30:92,0.19470453262329102,-0.005780263803899288,-0.009202604182064533,-0.9808018803596497,-0.20731210708618164,0.005327352788299322,0.09674549102783203,0,0,0
345027673,d4:22:cd:00:30:92,0.20645348727703094,-0.0058715916238725185,-0.009133382700383663,-0.9783962368965149,0.07926496118307114,-0.06817560642957687,0.0997457504272461,0,0,0
345044340,d4:22:cd:00:30:92,0.21811534464359283,-0.005956340581178665,-0.009082353673875332,-0.9758627414703369,0.2535214424133301,0.126661017537117,0.083160400390625,0,0,0
345061007,d4:22:cd:00:30:92,0.2306888997554779,-0.005909615661948919,-0.009590204805135727,-0.9729624390602112,-0.16325294971466064,0.15845364332199097,0.10411930084228516,0,0,0
345077674,d4:22:cd:00:30:92,0.24518106877803802,-0.005886978004127741,-0.01006287056952715,-0.9694072604179382,-0.18194422125816345,0.016807500272989273,0.11282062530517578,0,0,0
345094341,d4:22:cd:00:30:92,0.26136091351509094,-0.005541157443076372,-0.010497932322323322,-0.9651682376861572,-0.20383188128471375,0.06851645559072495,0.08259201049804688,0,0,0
345111008,d4:22:cd:00:30:92,0.27708303928375244,-0.00563751021400094,-0.010292422957718372,-0.9607744216918945,-0.2773810923099518,0.03777585178613663,0.12838268280029297,0,0,0
345127675,d4:22:cd:00:30:92,0.2931782007217407,-0.006171406712383032,-0.009398909285664558,-0.9559916853904724,-0.19008877873420715,0.019639361649751663,0.1287221908569336,0,0,0
345144342,d4:22:cd:00:30:92,0.3071311116218567,-0.006556147243827581,-0.008070825599133968,-0.9516105055809021,-0.437595397233963,0.3527980148792267,0.02723979949951172,0,0,0
345161009,d4:22:cd:00:30:92,0.32029426097869873,-0.006584135815501213,-0.008307800628244877,-0.9472589492797852,-0.05099964886903763,0.16620635986328125,0.07054710388183594,0,0,0
345177676,d4:22:cd:00:30:92,0.33238843083381653,-0.006309495773166418,-0.009269756264984608,-0.943075954914093,-0.05783515051007271,0.08077676594257355,0.077880859375,0,0,0
345194343,d4:22:cd:00:30:92,0.34481605887413025,-0.006371819414198399,-0.009127684868872166,-0.9386043548583984,0.007547379471361637,0.020028984174132347,0.1507282257080078,0,0,0
345211010,d4:22:cd:00:30:92,0.3553011119365692,-0.006528039462864399,-0.008656421676278114,-0.9346892237663269,-0.004460466559976339,0.0755191221833229,0.09808826446533203,0,0,0
345227677,d4:22:cd:00:30:92,0.36627012491226196,-0.006728487554937601,-0.007932865060865879,-0.9304505586624146,-0.09078770875930786,-0.06062835082411766,0.09359264373779297,0,0,0
345244344,d4:22:cd:00:30:92,0.3799753785133362,-0.0061481609009206295,-0.00618684571236372,-0.9249556064605713,-0.021280763670802116,-0.3676930069923401,0.11704254150390625,0,0,0
345261011,d4:22:cd:00:30:92,0.3979499042034149,-0.004859146662056446,-0.0037053630221635103,-0.9173868894577026,0.4446542263031006,-0.3332935571670532,0.12051963806152344,0,0,0
345277678,d4:22:cd:00:30:92,0.4153958857059479,-0.0031294606160372496,-0.0028279018588364124,-0.9096311330795288,-0.03073619119822979,0.48354268074035645,-0.09552001953125,0,0,0
345294345,d4:22:cd:00:30:92,0.4244976341724396,-0.0020030660089105368,-0.0034192444290965796,-0.9054203033447266,-0.36029860377311707,0.43127474188804626,0.18187236785888672,0,0,0
345311012,d4:22:cd:00:30:92,0.4357300400733948,-0.0018178002210333943,-0.003795621218159795,-0.9000675082206726,-0.28631025552749634,0.07395341247320175,0.0774087905883789,0,0,0
345327679,d4:22:cd:00:30:92,0.4462870657444,-0.002093544928357005,-0.0033241582568734884,-0.8948811292648315,0.026138877496123314,0.05301063880324364,0.12128543853759766,0,0,0
345344346,d4:22:cd:00:30:92,0.4552246630191803,-0.0021266380790621042,-0.0033190781250596046,-0.8903679251670837,-0.06477371603250504,0.1243710070848465,0.019641876220703125,0,0,0
345361013,d4:22:cd:00:30:92,0.4616187512874603,-0.0017196054104715586,-0.0043656835332512856,-0.8870660662651062,0.041854631155729294,0.24669493734836578,0.04658031463623047,0,0,0
345377680,d4:22:cd:00:30:92,0.46717068552970886,-0.0017826083349063993,-0.0053553045727312565,-0.8841492533683777,0.14314325153827667,-0.2747188210487366,0.21610069274902344,0,0,0
345394347,d4:22:cd:00:30:92,0.47498819231987,-0.006640068721026182,-0.0066497656516730785,-0.8799421191215515,0.2755289673805237,0.06315060704946518,0.1890888214111328,0,0,0
345411014,d4:22:cd:00:30:92,0.48200365900993347,-0.007651657797396183,-0.005742439068853855,-0.8761169910430908,0.1857321858406067,-0.3514871895313263,0.0037126541137695312,0,0,0
345427681,d4:22:cd:00:30:92,0.49027860164642334,-0.007736088242381811,-0.004479795228689909,-0.8715199828147888,0.04161481559276581,-0.0922168642282486,0.1332073211669922,0,0,0
345444348,d4:22:cd:00:30:92,0.5000088214874268,-0.007658402901142836,-0.0023298736196011305,-0.8659835457801819,-0.004039891995489597,-0.054075129330158234,0.06966495513916016,0,0,0
345461015,d4:22:cd:00:30:92,0.5094407200813293,-0.007294537033885717,-0.00040212812018580735,-0.8604748845100403,0.544854462146759,0.17778868973255157,0.07749271392822266,0,0,0
345477682,d4:22:cd:00:30:92,0.5176955461502075,-0.0074457996524870396,-0.00027479848358780146,-0.8555324673652649,0.3696192502975464,0.4221901595592499,0.030475616455078125,0,0,0
345494349,d4:22:cd:00:30:92,0.5258470773696899,-0.007540469523519278,-0.0002148799248971045,-0.8505458235740662,-0.23258660733699799,0.046775978058576584,0.07839584350585938,0,0,0
345511016,d4:22:cd:00:30:92,0.5330578088760376,-0.0076119909062981606,-0.00008768853876972571,-0.8460447192192078,-0.3124283254146576,-0.02327127568423748,0.13146686553955078,0,0,0
345527683,d4:22:cd:00:30:92,0.5384913682937622,-0.00764148635789752,-0.0000019482870357023785,-0.8425965905189514,-0.07036858052015305,0.1933261901140213,0.08627986907958984,0,0,0
345544350,d4:22:cd:00:30:92,0.5437720417976379,-0.007668740581721067,0.00007098565401975065,-0.8391980528831482,-0.08235057443380356,-0.19921378791332245,0.10663223266601562,0,0,0
345561017,d4:22:cd:00:30:92,0.5500723123550415,-0.007681452203541994,0.00019688380416482687,-0.8350818157196045,-0.11605033278465271,-0.03571537882089615,0.0822763442993164,0,0,0
345577684,d4:22:cd:00:30:92,0.5544586777687073,-0.007570513989776373,0.000290983181912452,-0.8321768641471863,-0.15297000110149384,0.09802898019552231,0.09134769439697266,0,0,0
345594351,d4:22:cd:00:30:92,0.5586537718772888,-0.007174331229180098,0.00035143643617630005,-0.8293700218200684,-0.23423853516578674,-0.19516964256763458,0.06601715087890625,0,0,0
345611018,d4:22:cd:00:30:92,0.5635845065116882,-0.006254283245652914,0.00026208613417111337,-0.8260347843170166,-0.08505389094352722,-0.17451460659503937,0.07908344268798828,0,0,0
345627685,d4:22:cd:00:30:92,0.5699299573898315,-0.005862335674464703,0.00025803109747357666,-0.8216723203659058,0.3920566439628601,0.07827292382717133,0.1363840103149414,0,0,0
345644352,d4:22:cd:00:30:92,0.5758020281791687,-0.005664639174938202,0.00024642806965857744,-0.8175695538520813,0.19539234042167664,-0.22698277235031128,0.0782461166381836,0,0,0
345661019,d4:22:cd:00:30:92,0.5807943940162659,-0.006584045011550188,-0.0018555037677288055,-0.8140217065811157,-0.2012772113084793,0.11789331585168839,0.05872344970703125,0,0,0
345677686,d4:22:cd:00:30:92,0.5868431925773621,-0.006849442142993212,-0.0033253717701882124,-0.809664785861969,-0.2567887604236603,-0.23808027803897858,0.13091278076171875,0,0,0
345694353,d4:22:cd:00:30:92,0.5932912230491638,-0.006177819333970547,-0.0030541187152266502,-0.8049584627151489,0.08392398804426193,0.28250566124916077,0.12108135223388672,0,0,0
345711020,d4:22:cd:00:30:92,0.598734974861145,-0.007035828661173582,-0.004176233895123005,-0.8009054660797119,-0.17792865633964539,0.015211038291454315,0.10330390930175781,0,0,0
345727687,d4:22:cd:00:30:92,0.6048486232757568,-0.0066614458337426186,-0.0032421513460576534,-0.7963061332702637,-0.21540410816669464,-0.1505812555551529,0.10873985290527344,0,0,0
345744354,d4:22:cd:00:30:92,0.6108541488647461,-0.006024691741913557,-0.002280868822708726,-0.791716992855072,-0.047466084361076355,-0.009474326856434345,0.0981283187866211,0,0,0
345761021,d4:22:cd:00:30:92,0.6161216497421265,-0.006805081386119127,-0.003447022056207061,-0.7876141667366028,0.08922608196735382,0.26162561774253845,0.05384254455566406,0,0,0
345777688,d4:22:cd:00:30:92,0.6208561062812805,-0.007491063326597214,-0.004865019582211971,-0.7838737368583679,0.015056043863296509,-0.20614464581012726,0.11232376098632812,0,0,0
345794355,d4:22:cd:00:30:92,0.6257491707801819,-0.0073556797578930855,-0.00493547273799777,-0.7799741625785828,-0.08698882907629013,-0.10766252875328064,0.10397911071777344,0,0,0
345811022,d4:22:cd:00:30:92,0.62954181432724,-0.007473812438547611,-0.004671279340982437,-0.7769168615341187,-0.05739082768559456,0.11059896647930145,0.1408834457397461,0,0,0
345827689,d4:22:cd:00:30:92,0.6320881843566895,-0.007479095831513405,-0.004763375967741013,-0.7748458385467529,-0.07712052762508392,-0.05410599336028099,0.09615039825439453,0,0,0
345844356,d4:22:cd:00:30:92,0.6343939304351807,-0.006682276260107756,-0.0054234107956290245,-0.7729621529579163,-0.1725805252790451,-0.0559786856174469,0.03594970703125,0,0,0
345861023,d4:22:cd:00:30:92,0.6353899240493774,-0.006723501719534397,-0.005368255078792572,-0.7721436023712158,0.05193822458386421,0.5135600566864014,0.12915897369384766,0,0,0
345877690,d4:22:cd:00:30:92,0.636307954788208,-0.006953541189432144,-0.005223541054874659,-0.7713862657546997,-0.001295875757932663,0.08501140773296356,0.10329341888427734,0,0,0
345894357,d4:22:cd:00:30:92,0.6357982754707336,-0.007043283432722092,-0.005173621233552694,-0.771806001663208,0.029943542554974556,0.09170565009117126,0.14612579345703125,0,0,0
345911024,d4:22:cd:00:30:92,0.635431706905365,-0.007239506114274263,-0.0050513166934251785,-0.7721067070960999,0.026226036250591278,-0.05851082503795624,0.113311767578125,0,0,0
345927691,d4:22:cd:00:30:92,0.6357058882713318,-0.0073847114108502865,-0.004888487979769707,-0.7718807458877563,-0.029150525107979774,-0.11685997992753983,0.06270599365234375,0,0,0
345944358,d4:22:cd:00:30:92,0.6377907395362854,-0.008158165030181408,-0.004126394633203745,-0.7701555490493774,0.05298611521720886,-0.06349755823612213,0.12980270385742188,0,0,0
345961025,d4:22:cd:00:30:92,0.6390641331672668,-0.008332899771630764,-0.003838940057903528,-0.7690989375114441,0.06014876067638397,0.0074113402515649796,0.06639575958251953,0,0,0
345977692,d4:22:cd:00:30:92,0.6395487785339355,-0.00841102097183466,-0.0036296651232987642,-0.7686959505081177,-0.005759520456194878,0.022245192900300026,0.1055917739868164,0,0,0
345994359,d4:22:cd:00:30:92,0.6404139399528503,-0.008512310683727264,-0.0031931856647133827,-0.7679762244224548,0.07056925445795059,0.02198701910674572,0.09167957305908203,0,0,0
346011026,d4:22:cd:00:30:92,0.6420807242393494,-0.008615059778094292,-0.0026658535934984684,-0.7665840983390808,0.052918411791324615,0.10736645758152008,0.11147785186767578,0,0,0
346027693,d4:22:cd:00:30:92,0.642899751663208,-0.008671234361827374,-0.002289774129167199,-0.7658979296684265,-0.0866134911775589,-0.022668156772851944,0.0960836410522461,0,0,0
346044360,d4:22:cd:00:30:92,0.6427904963493347,-0.008757838048040867,-0.0017733116401359439,-0.7659899592399597,-0.03186491131782532,-0.05561697483062744,0.10198497772216797,0,0,0
346061027,d4:22:cd:00:30:92,0.6415071487426758,-0.008749946020543575,-0.001843880396336317,-0.7670649290084839,-0.11549212783575058,0.11029349267482758,0.06418609619140625,0,0,0
346077694,d4:22:cd:00:30:92,0.6409457921981812,-0.008712655864655972,-0.0020643037278205156,-0.7675340175628662,0.2040308266878128,-0.31036311388015747,0.12146282196044922,0,0,0
346094361,d4:22:cd:00:30:92,0.6415627598762512,-0.008909241296350956,-0.0002371165610384196,-0.7670188546180725,0.0902109295129776,-0.12930142879486084,0.1588001251220703,0,0,0
346111028,d4:22:cd:00:30:92,0.6415765881538391,-0.008845610544085503,-0.0012828102335333824,-0.7670071125030518,-0.16539502143859863,0.21592150628566742,-0.11867618560791016,0,0,0
346127695,d4:22:cd:00:30:92,0.6415413022041321,-0.008769134059548378,-0.0017335704760625958,-0.767036497592926,0.17708219587802887,-0.18732298910617828,0.2586069107055664,0,0,0
346144362,d4:22:cd:00:30:92,0.6415190100669861,-0.008801761083304882,-0.0015744083793833852,-0.767055094242096,-0.053885165601968765,0.04206043481826782,0.018726348876953125,0,0,0
346161029,d4:22:cd:00:30:92,0.6414957642555237,-0.008800944313406944,-0.0015651562716811895,-0.7670745253562927,0.06563775986433029,-0.07279703766107559,0.1400165557861328,0,0,0
346177696,d4:22:cd:00:30:92,0.6414792537689209,-0.008798177354037762,-0.00161290995310992,-0.7670882344245911,0.0075214398093521595,-0.013509098440408707,0.08247852325439453,0,0,0
346194363,d4:22:cd:00:30:92,0.6414675116539001,-0.008798805996775627,-0.001569164451211691,-0.7670981884002686,0.02163655310869217,-0.036988724023103714,0.09482479095458984,0,0,0
346211030,d4:22:cd:00:30:92,0.6414526700973511,-0.008808385580778122,-0.0015675780596211553,-0.7671104669570923,0.020120907574892044,-0.026260795071721077,0.0910491943359375,0,0,0
346227697,d4:22:cd:00:30:92,0.6414415240287781,-0.008804435841739178,-0.0015536113642156124,-0.7671198844909668,0.026375584304332733,-0.02738286182284355,0.09270858764648438,0,0,0
346244364,d4:22:cd:00:30:92,0.6414163112640381,-0.008804043754935265,-0.001536420313641429,-0.7671408653259277,0.02870473824441433,-0.025762371718883514,0.09930992126464844,0,0,0
346261031,d4:22:cd:00:30:92,0.6413951516151428,-0.008808096870779991,-0.0015288329450413585,-0.7671586871147156,0.023762982338666916,-0.038311246782541275,0.08697223663330078,0,0,0
346277698,d4:22:cd:00:30:92,0.6413761973381042,-0.008810136467218399,-0.0015305704437196255,-0.767174482345581,0.02470955066382885,-0.031223461031913757,0.08711051940917969,0,0,0
346294365,d4:22:cd:00:30:92,0.641361653804779,-0.008815505541861057,-0.0015201654750853777,-0.7671865820884705,0.02206849306821823,-0.028258726000785828,0.09582138061523438,0,0,0
346311032,d4:22:cd:00:30:92,0.6413479447364807,-0.00882603507488966,-0.0015256210463121533,-0.7671979069709778,0.017869843170046806,-0.030591806396842003,0.10227298736572266,0,0,0
346327699,d4:22:cd:00:30:92,0.641330361366272,-0.008818315342068672,-0.0015156997833400965,-0.7672128677368164,0.0289797093719244,-0.03180382773280144,0.0908670425415039,0,0,0
346344366,d4:22:cd:00:30:92,0.6413190960884094,-0.008821818977594376,-0.0015096087008714676,-0.7672221064567566,0.013546479865908623,-0.020487075671553612,0.09213447570800781,0,0,0
346361033,d4:22:cd:00:30:92,0.6412954926490784,-0.00881238654255867,-0.0014952817000448704,-0.7672419548034668,0.02775035798549652,-0.027006514370441437,0.09998607635498047,0,0,0
346377700,d4:22:cd:00:30:92,0.6412754058837891,-0.008806978352367878,-0.001474049175158143,-0.7672587633132935,0.02108541689813137,-0.03328132629394531,0.09754180908203125,0,0,0
346394367,d4:22:cd:00:30:92,0.6412503123283386,-0.008807347156107426,-0.0014741674531251192,-0.7672799229621887,0.028278663754463196,-0.04423489049077034,0.09987258911132812,0,0,0
346411034,d4:22:cd:00:30:92,0.6412264704704285,-0.008803864009678364,-0.0014631618978455663,-0.7672998905181885,0.023904064670205116,-0.023604026064276695,0.0966634750366211,0,0,0
346427701,d4:22:cd:00:30:92,0.6411964297294617,-0.00879896990954876,-0.0014568204060196877,-0.7673250436782837,0.01971955969929695,-0.03214235231280327,0.07864093780517578,0,0,0
346444368,d4:22:cd:00:30:92,0.6411783695220947,-0.008797409012913704,-0.0014514006907120347,-0.7673401236534119,0.02965123951435089,-0.03132495656609535,0.08371543884277344,0,0,0
346461035,d4:22:cd:00:30:92,0.6411687135696411,-0.008795705623924732,-0.0014292432460933924,-0.7673482298851013,0.0422443225979805,-0.036918602883815765,0.09676837921142578,0,0,0
346477702,d4:22:cd:00:30:92,0.6411463618278503,-0.008787143044173717,-0.0014154957607388496,-0.7673669457435608,0.019334156066179276,-0.013901258818805218,0.09410762786865234,0,0,0
346494369,d4:22:cd:00:30:92,0.6411354541778564,-0.008789701387286186,-0.001406377530656755,-0.767376184463501,0.018146857619285583,-0.039549797773361206,0.0982351303100586,0,0,0
346511036,d4:22:cd:00:30:92,0.6411100029945374,-0.008789384737610817,-0.0014107526512816548,-0.7673973441123962,0.02729951962828636,-0.02972259186208248,0.09153175354003906,0,0,0
346527703,d4:22:cd:00:30:92,0.6410976648330688,-0.008772823959589005,-0.0014037874061614275,-0.7674078345298767,0.023030918091535568,-0.02432270161807537,0.11087322235107422,0,0,0
346544370,d4:22:cd:00:30:92,0.6410834193229675,-0.008781220763921738,-0.0013905094237998128,-0.7674196362495422,0.019883478060364723,-0.03363438695669174,0.09269428253173828,0,0,0
346561037,d4:22:cd:00:30:92,0.6410676836967468,-0.008771139197051525,-0.0013777193380519748,-0.7674329876899719,0.031525395810604095,-0.018099339678883553,0.09610176086425781,0,0,0
346577704,d4:22:cd:00:30:92,0.641047477722168,-0.008766178041696548,-0.0013613628689199686,-0.7674499154090881,0.022565383464097977,-0.026348762214183807,0.09691143035888672,0,0,0
346594371,d4:22:cd:00:30:92,0.6410312056541443,-0.008773508481681347,-0.001357077737338841,-0.7674634456634521,0.024584593251347542,-0.021250613033771515,0.09854316711425781,0,0,0
346611038,d4:22:cd:00:30:92,0.641005277633667,-0.008778312243521214,-0.0013475259765982628,-0.7674852013587952,0.015004519373178482,-0.017897440120577812,0.09041023254394531,0,0,0
346627705,d4:22:cd:00:30:92,0.6409798860549927,-0.008777901530265808,-0.0013319395948201418,-0.7675063610076904,0.02415827475488186,-0.04298926889896393,0.08442020416259766,0,0,0
346644372,d4:22:cd:00:30:92,0.6409708857536316,-0.008784650824964046,-0.0013253299985080957,-0.7675137519836426,0.026977112516760826,-0.026692552492022514,0.10500144958496094,0,0,0
346661039,d4:22:cd:00:30:92,0.640949010848999,-0.008786694146692753,-0.00131924357265234,-0.7675321102142334,0.02363024652004242,-0.03399011865258217,0.1021871566772461,0,0,0
346677706,d4:22:cd:00:30:92,0.6409311890602112,-0.008784505538642406,-0.0013194710481911898,-0.7675469517707825,0.023865707218647003,-0.04472179338335991,0.09981632232666016,0,0,0
346694373,d4:22:cd:00:30:92,0.6409111618995667,-0.008781859651207924,-0.0013005657820031047,-0.7675637602806091,0.013646108098328114,-0.03592115640640259,0.09268474578857422,0,0,0
346711040,d4:22:cd:00:30:92,0.6408983469009399,-0.00878078117966652,-0.0012952787801623344,-0.7675744891166687,0.02564145252108574,-0.027727317065000534,0.0911092758178711,0,0,0
346727707,d4:22:cd:00:30:92,0.6408783197402954,-0.008773032575845718,-0.0012926781782880425,-0.7675912380218506,0.03424324467778206,-0.03163748234510422,0.10657978057861328,0,0,0
346744374,d4:22:cd:00:30:92,0.6408616900444031,-0.008773795329034328,-0.0012903130846098065,-0.7676050662994385,0.03101877123117447,-0.03618795424699783,0.09309673309326172,0,0,0
346761041,d4:22:cd:00:30:92,0.6408416032791138,-0.00877393502742052,-0.0012761432444676757,-0.7676219940185547,0.023762870579957962,-0.033178508281707764,0.10201835632324219,0,0,0
346777708,d4:22:cd:00:30:92,0.6408293843269348,-0.008770640008151531,-0.0012678070925176144,-0.7676321864128113,0.022491775453090668,-0.0277214627712965,0.0845184326171875,0,0,0
346794375,d4:22:cd:00:30:92,0.6408172249794006,-0.008768650703132153,-0.0012542809126898646,-0.7676423192024231,0.020257823169231415,-0.0322282649576664,0.08330345153808594,0,0,0
346811042,d4:22:cd:00:30:92,0.640792727470398,-0.008772321045398712,-0.0012466623447835445,-0.7676628828048706,0.04077928885817528,-0.04028046876192093,0.08711051940917969,0,0,0
346827709,d4:22:cd:00:30:92,0.6407808065414429,-0.008766649290919304,-0.0012446255423128605,-0.7676728963851929,0.011875279247760773,-0.04146824777126312,0.09219741821289062,0,0,0
346844376,d4:22:cd:00:30:92,0.640762984752655,-0.008754800073802471,-0.0012411484494805336,-0.767687976360321,0.024654915556311607,-0.031727321445941925,0.1003255844116211,0,0,0
346861043,d4:22:cd:00:30:92,0.6407554149627686,-0.008751774206757545,-0.0012313069310039282,-0.7676942348480225,0.032070137560367584,-0.04182921350002289,0.1009979248046875,0,0,0
346877710,d4:22:cd:00:30:92,0.6407386064529419,-0.00875296350568533,-0.001221759244799614,-0.7677083015441895,0.029191933572292328,-0.038023434579372406,0.10433006286621094,0,0,0
346894377,d4:22:cd:00:30:92,0.6407292485237122,-0.008748370222747326,-0.001220131991431117,-0.7677161693572998,0.03040466271340847,-0.03307831287384033,0.0820169448852539,0,0,0
346911044,d4:22:cd:00:30:92,0.6407079100608826,-0.0087448013946414,-0.0012173161376267672,-0.7677340507507324,0.025290513411164284,-0.04077208414673805,0.08867073059082031,0,0,0
346927711,d4:22:cd:00:30:92,0.6406877040863037,-0.008749664761126041,-0.0012052595848217607,-0.7677509188652039,0.04132343456149101,-0.048971984535455704,0.10805320739746094,0,0,0
346944378,d4:22:cd:00:30:92,0.6406713128089905,-0.008748729713261127,-0.0011909878812730312,-0.7677645087242126,0.037792857736349106,-0.04027728736400604,0.1109161376953125,0,0,0
346961045,d4:22:cd:00:30:92,0.6406561136245728,-0.008745985105633736,-0.001185912056826055,-0.7677772045135498,0.02171810157597065,-0.044122688472270966,0.09661865234375,0,0,0
346977712,d4:22:cd:00:30:92,0.640629768371582,-0.008750347420573235,-0.0011725021759048104,-0.7677991390228271,0.014400939457118511,-0.04244053736329079,0.08914661407470703,0,0,0
346994379,d4:22:cd:00:30:92,0.6406155228614807,-0.008746100589632988,-0.0011624994222074747,-0.7678110599517822,0.03235839307308197,-0.05687975883483887,0.09915828704833984,0,0,0
347011046,d4:22:cd:00:30:92,0.6406035423278809,-0.008752812631428242,-0.001153818448074162,-0.7678211331367493,0.02750139869749546,-0.045553598552942276,0.08966445922851562,0,0,0
347027713,d4:22:cd:00:30:92,0.640576958656311,-0.008756380528211594,-0.001139832311309874,-0.7678433060646057,0.027241175994277,-0.028920264914631844,0.09842109680175781,0,0,0
347044380,d4:22:cd:00:30:92,0.6405569911003113,-0.008758784271776676,-0.0011235029669478536,-0.767859935760498,0.035843707621097565,-0.034658998250961304,0.10670661926269531,0,0,0
347061047,d4:22:cd:00:30:92,0.6405541896820068,-0.008764795027673244,-0.001128022326156497,-0.7678622007369995,0.0349561981856823,-0.034529224038124084,0.10061836242675781,0,0,0
347077714,d4:22:cd:00:30:92,0.6405332684516907,-0.008756615221500397,-0.0011220480082556605,-0.7678797245025635,0.020641082897782326,-0.038973934948444366,0.09631633758544922,0,0,0
347094381,d4:22:cd:00:30:92,0.6405176520347595,-0.008761807344853878,-0.0011129362974315882,-0.767892599105835,0.02899874933063984,-0.042036619037389755,0.09106731414794922,0,0,0
347111048,d4:22:cd:00:30:92,0.6404955983161926,-0.008758090436458588,-0.0011036646319553256,-0.7679110169410706,0.03138383477926254,-0.047565214335918427,0.09514045715332031,0,0,0
347127715,d4:22:cd:00:30:92,0.640490710735321,-0.008754853159189224,-0.0010963189415633678,-0.7679153084754944,0.022299842908978462,-0.03611918166279793,0.08955860137939453,0,0,0
347144382,d4:22:cd:00:30:92,0.64047771692276,-0.008747951127588749,-0.0010904301889240742,-0.7679262757301331,0.025644637644290924,-0.03874220699071884,0.07970714569091797,0,0,0
347161049,d4:22:cd:00:30:92,0.6404696702957153,-0.008753168396651745,-0.0010836564470082521,-0.7679328322410583,0.030885862186551094,-0.0382523238658905,0.09524726867675781,0,0,0
347177716,d4:22:cd:00:30:92,0.6404576301574707,-0.008754444308578968,-0.0010824088240042329,-0.7679428458213806,0.024410229176282883,-0.034459374845027924,0.09403324127197266,0,0,0
347194383,d4:22:cd:00:30:92,0.6404505372047424,-0.008757593110203743,-0.0010796027490869164,-0.7679487466812134,0.040287259966135025,-0.051342230290174484,0.09908294677734375,0,0,0
347211050,d4:22:cd:00:30:92,0.6404336094856262,-0.008752970024943352,-0.0010779490694403648,-0.7679628729820251,0.044266264885663986,-0.04255254939198494,0.09105873107910156,0,0,0
347227717,d4:22:cd:00:30:92,0.6404250264167786,-0.008756386116147041,-0.0010621222900226712,-0.7679702043533325,0.025515159592032433,-0.04001198709011078,0.08638858795166016,0,0,0
347244384,d4:22:cd:00:30:92,0.6404076814651489,-0.008751439861953259,-0.0010471141431480646,-0.7679846882820129,0.04549679905176163,-0.025117041543126106,0.10202503204345703,0,0,0
347261051,d4:22:cd:00:30:92,0.6403988599777222,-0.008744433522224426,-0.0010474587325006723,-0.7679920792579651,0.036286476999521255,-0.04436977952718735,0.10106945037841797,0,0,0
347277718,d4:22:cd:00:30:92,0.6403843760490417,-0.008736121468245983,-0.0010380737949162722,-0.7680042386054993,0.025225689634680748,-0.03804653882980347,0.09478187561035156,0,0,0
347294385,d4:22:cd:00:30:92,0.6403720378875732,-0.008732459507882595,-0.0010324338218197227,-0.7680145502090454,0.01747938059270382,-0.0446849949657917,0.09773540496826172,0,0,0
347311052,d4:22:cd:00:30:92,0.6403654217720032,-0.008745022118091583,-0.0010248183971270919,-0.7680199146270752,0.0385870561003685,-0.0335514135658741,0.09726333618164062,0,0,0
347327719,d4:22:cd:00:30:92,0.6403493285179138,-0.008750056847929955,-0.0010105029214173555,-0.7680332660675049,0.031427156180143356,-0.052018266171216965,0.10299301147460938,0,0,0
347344386,d4:22:cd:00:30:92,0.6403456330299377,-0.008747359737753868,-0.001008596969768405,-0.7680364847183228,0.03238368779420853,-0.03759037330746651,0.08360767364501953,0,0,0
347361053,d4:22:cd:00:30:92,0.6403467655181885,-0.008753501810133457,-0.001006781472824514,-0.7680355310440063,0.012218832038342953,-0.026070859283208847,0.10174369812011719,0,0,0
347377720,d4:22:cd:00:30:92,0.6403337121009827,-0.008754981681704521,-0.0010012435959652066,-0.7680463194847107,0.029953941702842712,-0.04106633737683296,0.08364200592041016,0,0,0
347394387,d4:22:cd:00:30:92,0.6403343677520752,-0.008755986578762531,-0.0009907276835292578,-0.7680457830429077,0.029054338112473488,-0.04365964233875275,0.1014719009399414,0,0,0
347411054,d4:22:cd:00:30:92,0.6403127312660217,-0.008766639046370983,-0.0009802934946492314,-0.7680636644363403,0.031145364046096802,-0.029923997819423676,0.08446311950683594,0,0,0
347427721,d4:22:cd:00:30:92,0.6402971744537354,-0.008758279494941235,-0.0009793828940019011,-0.7680767178535461,0.026552079245448112,-0.029552355408668518,0.10961246490478516,0,0,0
347444388,d4:22:cd:00:30:92,0.640280544757843,-0.008753218688070774,-0.0009591743000783026,-0.7680907249450684,0.032513637095689774,-0.029606232419610023,0.09176254272460938,0,0,0
347461055,d4:22:cd:00:30:92,0.6402676701545715,-0.008753272704780102,-0.000955425261054188,-0.7681013941764832,0.022932058200240135,-0.05509072542190552,0.09708023071289062,0,0,0
347477722,d4:22:cd:00:30:92,0.6402599811553955,-0.008751782588660717,-0.0009536225697956979,-0.7681078314781189,0.02970113232731819,-0.04931078478693962,0.08635902404785156,0,0,0
347494389,d4:22:cd:00:30:92,0.640255331993103,-0.00874961819499731,-0.0009459987631998956,-0.7681117057800293,0.035405483096838,-0.03438211604952812,0.09592342376708984,0,0,0
347511056,d4:22:cd:00:30:92,0.6402449011802673,-0.008750329725444317,-0.0009432559018023312,-0.7681204676628113,0.021982816979289055,-0.0527329184114933,0.10097312927246094,0,0,0
347527723,d4:22:cd:00:30:92,0.6402381658554077,-0.00875185802578926,-0.0009345764992758632,-0.7681261301040649,0.01970447599887848,-0.030053509399294853,0.0912027359008789,0,0,0
347544390,d4:22:cd:00:30:92,0.6402265429496765,-0.008759845979511738,-0.000927915156353265,-0.7681357264518738,0.01846102811396122,-0.04523204267024994,0.08288764953613281,0,0,0
347561057,d4:22:cd:00:30:92,0.6402150392532349,-0.008765685372054577,-0.0009122046176344156,-0.7681452035903931,0.03789820149540901,-0.023973939940333366,0.09009933471679688,0,0,0
347577724,d4:22:cd:00:30:92,0.6401882767677307,-0.008769725449383259,-0.0009056390845216811,-0.7681674361228943,0.03691281005740166,-0.03601449355483055,0.1008148193359375,0,0,0
347594391,d4:22:cd:00:30:92,0.6401723027229309,-0.008774605579674244,-0.0009041570010595024,-0.7681808471679688,0.031024742871522903,-0.041971899569034576,0.1036691665649414,0,0,0
347611058,d4:22:cd:00:30:92,0.6401581764221191,-0.008772285655140877,-0.0008892494952306151,-0.7681926488876343,0.03076772205531597,-0.050849296152591705,0.09235668182373047,0,0,0
347627725,d4:22:cd:00:30:92,0.640146017074585,-0.008772342465817928,-0.0008905386785045266,-0.7682027816772461,0.031135525554418564,-0.03494188189506531,0.09913063049316406,0,0,0
347644392,d4:22:cd:00:30:92,0.6401357054710388,-0.008779443800449371,-0.0008850289159454405,-0.7682112455368042,0.03535652533173561,-0.04541851580142975,0.1026611328125,0,0,0
347661059,d4:22:cd:00:30:92,0.6401252746582031,-0.008769604377448559,-0.0008836393826641142,-0.7682200074195862,0.028223903849720955,-0.03390540927648544,0.10871124267578125,0,0,0
347677726,d4:22:cd:00:30:92,0.6401095986366272,-0.008766483515501022,-0.0008723234641365707,-0.7682331204414368,0.04323817417025566,-0.03637997806072235,0.09821033477783203,0,0,0
347694393,d4:22:cd:00:30:92,0.6401090621948242,-0.008767928928136826,-0.0008713891147635877,-0.7682335376739502,0.021932892501354218,-0.03107413649559021,0.08810997009277344,0,0,0
347711060,d4:22:cd:00:30:92,0.6400997638702393,-0.008764463476836681,-0.0008679632446728647,-0.7682413458824158,0.03683416545391083,-0.045777589082717896,0.0977182388305664,0,0,0
347727727,d4:22:cd:00:30:92,0.6400898694992065,-0.008762234821915627,-0.0008584006573073566,-0.7682495713233948,0.030827151611447334,-0.04434848576784134,0.08485984802246094,0,0,0
347744394,d4:22:cd:00:30:92,0.6400741934776306,-0.008763153105974197,-0.0008545523742213845,-0.7682625651359558,0.03041813336312771,-0.0429251566529274,0.0949249267578125,0,0,0
347761061,d4:22:cd:00:30:92,0.6400573253631592,-0.008761055767536163,-0.0008437758660875261,-0.7682767510414124,0.034921467304229736,-0.03570054471492767,0.09967899322509766,0,0,0
347777728,d4:22:cd:00:30:92,0.6400434374809265,-0.008776948787271976,-0.0008290186524391174,-0.768288254737854,0.036452922970056534,-0.031604159623384476,0.0947103500366211,0,0,0
347794395,d4:22:cd:00:30:92,0.6400339007377625,-0.008771054446697235,-0.0008368244743905962,-0.7682962417602539,0.030901707708835602,-0.045105207711458206,0.08594894409179688,0,0,0
347811062,d4:22:cd:00:30:92,0.6400188207626343,-0.00876985490322113,-0.0008350092102773488,-0.7683087587356567,0.038579605519771576,-0.040438588708639145,0.08402347564697266,0,0,0
347827729,d4:22:cd:00:30:92,0.6400147676467896,-0.008758122101426125,-0.0008253337000496686,-0.7683122754096985,0.036065150052309036,-0.05051349848508835,0.08565807342529297,0,0,0
347844396,d4:22:cd:00:30:92,0.6400014758110046,-0.008756731636822224,-0.0008254675194621086,-0.7683233618736267,0.02518225461244583,-0.04131436347961426,0.10759449005126953,0,0,0
347861063,d4:22:cd:00:30:92,0.6399922370910645,-0.008769513107836246,-0.0008113562944345176,-0.7683308720588684,0.034511908888816833,-0.039081424474716187,0.10133934020996094,0,0,0
347877730,d4:22:cd:00:30:92,0.6399869918823242,-0.008773931302130222,-0.0007999256486073136,-0.7683353424072266,0.03233468160033226,-0.04323595017194748,0.08720779418945312,0,0,0
347894397,d4:22:cd:00:30:92,0.6399763226509094,-0.0087738623842597,-0.0008009810699149966,-0.7683442831039429,0.039234135299921036,-0.0332522876560688,0.08787822723388672,0,0,0
347911064,d4:22:cd:00:30:92,0.6399678587913513,-0.008769566193223,-0.0007964287069626153,-0.7683511972427368,0.04561113566160202,-0.04832320660352707,0.09951591491699219,0,0,0
347927731,d4:22:cd:00:30:92,0.639960765838623,-0.008781596086919308,-0.0007824650965631008,-0.76835697889328,0.03556867316365242,-0.04342282935976982,0.10997390747070312,0,0,0
347944398,d4:22:cd:00:30:92,0.6399458050727844,-0.008787925355136395,-0.0007795699057169259,-0.7683695554733276,0.02238869108259678,-0.04804303124547005,0.09672737121582031,0,0,0
347961065,d4:22:cd:00:30:92,0.639938473701477,-0.008784941397607327,-0.000776860280893743,-0.7683756351470947,0.020014429464936256,-0.049838587641716,0.09967613220214844,0,0,0
347977732,d4:22:cd:00:30:92,0.6399334073066711,-0.008778207935392857,-0.0007660956471227109,-0.7683798670768738,0.04142395779490471,-0.03528682515025139,0.0957489013671875,0,0,0
347994399,d4:22:cd:00:30:92,0.6399238705635071,-0.00877411849796772,-0.000756940571591258,-0.7683878540992737,0.0421261228621006,-0.04784158244729042,0.09470653533935547,0,0,0
348011066,d4:22:cd:00:30:92,0.6399131417274475,-0.008768459782004356,-0.0007461759960278869,-0.7683968544006348,0.04009772092103958,-0.04407131299376488,0.09963321685791016,0,0,0
348027733,d4:22:cd:00:30:92,0.6399040222167969,-0.008763106539845467,-0.0007394435815513134,-0.768404483795166,0.025549203157424927,-0.04254323989152908,0.10394573211669922,0,0,0
348044400,d4:22:cd:00:30:92,0.6398886442184448,-0.008766349405050278,-0.0007268018089234829,-0.768417239189148,0.03764798492193222,-0.04896143823862076,0.0852346420288086,0,0,0
348061067,d4:22:cd:00:30:92,0.6398743391036987,-0.008763913996517658,-0.0007212272030301392,-0.7684292793273926,0.031015664339065552,-0.03595869243144989,0.1000518798828125,0,0,0
348077734,d4:22:cd:00:30:92,0.6398637294769287,-0.008766921237111092,-0.0007185139693319798,-0.7684381008148193,0.0338829904794693,-0.04006068781018257,0.09556198120117188,0,0,0
348094401,d4:22:cd:00:30:92,0.6398534774780273,-0.008776397444307804,-0.0007063967059366405,-0.7684465646743774,0.028509611263871193,-0.04168122261762619,0.09953880310058594,0,0,0
348111068,d4:22:cd:00:30:92,0.6398561000823975,-0.008777892217040062,-0.0006919270381331444,-0.7684443593025208,0.03514554351568222,-0.04343871772289276,0.08556079864501953,0,0,0
348127735,d4:22:cd:00:30:92,0.6398451924324036,-0.008772383444011211,-0.0006766351871192455,-0.7684535384178162,0.02737469971179962,-0.033215973526239395,0.0984048843383789,0,0,0
348144402,d4:22:cd:00:30:92,0.6398450136184692,-0.008775033988058567,-0.0006631046999245882,-0.7684537172317505,0.028081629425287247,-0.05175536498427391,0.08820152282714844,0,0,0
348161069,d4:22:cd:00:30:92,0.6398277282714844,-0.008771081455051899,-0.0006585159571841359,-0.7684682011604309,0.03329859673976898,-0.03438171371817589,0.09299755096435547,0,0,0
348177736,d4:22:cd:00:30:92,0.6398195028305054,-0.008764038793742657,-0.000653464812785387,-0.7684750556945801,0.03968368470668793,-0.05043695122003555,0.09905433654785156,0,0,0
348194403,d4:22:cd:00:30:92,0.639812171459198,-0.008752740919589996,-0.0006603067158721387,-0.7684813141822815,0.03996116667985916,-0.046957507729530334,0.10017204284667969,0,0,0
348211070,d4:22:cd:00:30:92,0.6398035883903503,-0.008760901167988777,-0.0006630748393945396,-0.7684882283210754,0.04016515240073204,-0.04044504836201668,0.10260677337646484,0,0,0
348227737,d4:22:cd:00:30:92,0.6397897005081177,-0.008763148449361324,-0.0006657593767158687,-0.7684998512268066,0.03373456001281738,-0.04140326753258705,0.09738445281982422,0,0,0
348244404,d4:22:cd:00:30:92,0.6397733092308044,-0.008767150342464447,-0.0006534386775456369,-0.7685135006904602,0.037118036299943924,-0.04038265720009804,0.08902263641357422,0,0,0
348261071,d4:22:cd:00:30:92,0.6397691369056702,-0.008767574094235897,-0.0006464265170507133,-0.7685168385505676,0.034927934408187866,-0.04475969821214676,0.09799385070800781,0,0,0
348277738,d4:22:cd:00:30:92,0.6397721171379089,-0.008772728964686394,-0.0006520687602460384,-0.7685143351554871,0.03451241925358772,-0.04479671269655228,0.09787654876708984,0,0,0
348294405,d4:22:cd:00:30:92,0.639762282371521,-0.008771401830017567,-0.0006490653613582253,-0.7685225605964661,0.03978067263960838,-0.037009090185165405,0.10389423370361328,0,0,0
348311072,d4:22:cd:00:30:92,0.6397413611412048,-0.00877520814538002,-0.000654654810205102,-0.7685399651527405,0.041425593197345734,-0.03965131193399429,0.09769821166992188,0,0,0
348327739,d4:22:cd:00:30:92,0.6397314071655273,-0.008773639798164368,-0.000641718739643693,-0.768548309803009,0.04522959142923355,-0.048329681158065796,0.08629798889160156,0,0,0
348344406,d4:22:cd:00:30:92,0.6397238969802856,-0.008772915229201317,-0.0006430602516047657,-0.7685545682907104,0.03010973148047924,-0.033717866986989975,0.09935665130615234,0,0,0
348361073,d4:22:cd:00:30:92,0.639720618724823,-0.008776640519499779,-0.0006534660933539271,-0.7685572504997253,0.03509442135691643,-0.04217005521059036,0.09784126281738281,0,0,0
348377740,d4:22:cd:00:30:92,0.6397072672843933,-0.008763437159359455,-0.0006521157338283956,-0.7685685157775879,0.037716176360845566,-0.04476236552000046,0.09366035461425781,0,0,0
348394407,d4:22:cd:00:30:92,0.6396946907043457,-0.008762676268815994,-0.0006346541922539473,-0.768578827381134,0.049057647585868835,-0.038475535809993744,0.09735584259033203,0,0,0
348411074,d4:22:cd:00:30:92,0.6396744847297668,-0.008752780966460705,-0.0006250787992030382,-0.7685959339141846,0.04397033900022507,-0.04280778020620346,0.0832815170288086,0,0,0
348427741,d4:22:cd:00:30:92,0.6396663784980774,-0.008762494660913944,-0.0006223604432307184,-0.7686024904251099,0.03303580731153488,-0.03660862520337105,0.10892963409423828,0,0,0
348444408,d4:22:cd:00:30:92,0.6396681070327759,-0.008763364516198635,-0.0006216196925379336,-0.7686010599136353,0.027426427230238914,-0.04585990309715271,0.08772850036621094,0,0,0
348461075,d4:22:cd:00:30:92,0.6396607756614685,-0.008751755580306053,-0.0006230364087969065,-0.7686073184013367,0.05109737440943718,-0.039197325706481934,0.09779930114746094,0,0,0
348477742,d4:22:cd:00:30:92,0.6396616697311401,-0.008744043298065662,-0.0006113752606324852,-0.7686066627502441,0.03728964552283287,-0.035903096199035645,0.0943136215209961,0,0,0
348494409,d4:22:cd:00:30:92,0.6396530270576477,-0.008744818158447742,-0.0005978593253530562,-0.7686139345169067,0.040133338421583176,-0.03665115684270859,0.0952911376953125,0,0,0
348511076,d4:22:cd:00:30:92,0.6396429538726807,-0.008747034706175327,-0.0005899296957068145,-0.7686221599578857,0.029317572712898254,-0.04799328371882439,0.09697246551513672,0,0,0
348527743,d4:22:cd:00:30:92,0.6396185159683228,-0.00873920414596796,-0.0005819139769300818,-0.7686426043510437,0.03139910101890564,-0.04178692772984505,0.10542678833007812,0,0,0
348544410,d4:22:cd:00:30:92,0.639607310295105,-0.008747708983719349,-0.0005840474623255432,-0.7686518430709839,0.033224113285541534,-0.052789267152547836,0.07993793487548828,0,0,0
348561077,d4:22:cd:00:30:92,0.6396039724349976,-0.008753150701522827,-0.0005814498872496188,-0.7686545848846436,0.03813429921865463,-0.040661346167325974,0.09506893157958984,0,0,0
348577744,d4:22:cd:00:30:92,0.6395986080169678,-0.00875396840274334,-0.0005775949684903026,-0.7686591148376465,0.043455954641103745,-0.04218870773911476,0.10085582733154297,0,0,0
