sep=,
Measurement Mode:,Extended (Quaternion)
StartTime:,Tue, 24 May 2022 07:24:36 GMT
© Xsens Technologies B. V. 2005-2022

Timestamp,Address,Quaternion_w,Quaternion_x,Quaternion_y,Quaternion_z,FreeAcc_x,FreeAcc_y,FreeAcc_z,Status,ClipCountAcc,ClipCountGyr
280659169,d4:22:cd:00:30:92,0.6355616450309753,-0.008800121024250984,-0.0037367246113717556,-0.7719908356666565,0.005857099313288927,0.005303243175148964,0.08819770812988281,0,0,0
280675836,d4:22:cd:00:30:92,0.6355699896812439,-0.008802741765975952,-0.003727543167769909,-0.7719841003417969,0.009059563279151917,0.002569229109212756,0.10179328918457031,0,0,0
280692503,d4:22:cd:00:30:92,0.6355730295181274,-0.008804733864963055,-0.0037246178835630417,-0.7719815373420715,0.0027190193068236113,0.002698964439332485,0.10523605346679688,0,0,0
280709170,d4:22:cd:00:30:92,0.6355762481689453,-0.008807920850813389,-0.0037325615994632244,-0.7719789147377014,0.014955933205783367,0.011206800118088722,0.10680675506591797,0,0,0
280725837,d4:22:cd:00:30:92,0.6355867385864258,-0.008810621686279774,-0.003733723657205701,-0.771970272064209,0.01890420913696289,-0.0026175568345934153,0.10006332397460938,0,0,0
280742504,d4:22:cd:00:30:92,0.6355862021446228,-0.008809194900095463,-0.0037272812332957983,-0.7719707489013672,0.0033264891244471073,0.008167690597474575,0.1002340316772461,0,0,0
280759171,d4:22:cd:00:30:92,0.6355991363525391,-0.008811429142951965,-0.0037321732379496098,-0.7719600200653076,-0.00822171475738287,-0.007135983090847731,0.09384918212890625,0,0,0
280775838,d4:22:cd:00:30:92,0.6355984210968018,-0.0088048679754138,-0.003730194643139839,-0.7719606757164001,-0.0037265720311552286,0.0013324306346476078,0.10166072845458984,0,0,0
280792505,d4:22:cd:00:30:92,0.6356019377708435,-0.008811972104012966,-0.0037340999115258455,-0.7719576954841614,0.001997406128793955,0.003565258579328656,0.09538459777832031,0,0,0
280809172,d4:22:cd:00:30:92,0.6356004476547241,-0.00881897285580635,-0.0037301629781723022,-0.7719589471817017,-0.009719212539494038,0.005331517197191715,0.08973884582519531,0,0,0
280825839,d4:22:cd:00:30:92,0.6356034874916077,-0.008822783827781677,-0.003723540110513568,-0.7719563841819763,0.007004373706877232,0.010097609832882881,0.09615802764892578,0,0,0
280842506,d4:22:cd:00:30:92,0.6356287598609924,-0.008822123520076275,-0.0037156022153794765,-0.7719355821609497,-0.0007327400962822139,-0.00749753974378109,0.08980464935302734,0,0,0
280859173,d4:22:cd:00:30:92,0.6356233358383179,-0.008825516328215599,-0.0037109514232724905,-0.7719399929046631,0.004057406447827816,0.007105214986950159,0.08957386016845703,0,0,0
280875840,d4:22:cd:00:30:92,0.6356094479560852,-0.008819305337965488,-0.0037092778366059065,-0.7719514966011047,0.004325244575738907,0.02282208390533924,0.09439754486083984,0,0,0
280892507,d4:22:cd:00:30:92,0.6356275081634521,-0.008817088790237904,-0.003707495518028736,-0.7719366550445557,0.007317999377846718,0.0019497768953442574,0.10436630249023438,0,0,0
280909174,d4:22:cd:00:30:92,0.6356353163719177,-0.008819716051220894,-0.0036979319993406534,-0.7719303369522095,-0.0044432454742491245,-0.010460961610078812,0.09558677673339844,0,0,0
280925841,d4:22:cd:00:30:92,0.6356405019760132,-0.008811312727630138,-0.0037037557922303677,-0.7719260454177856,-0.0027586212381720543,0.008986656554043293,0.09947490692138672,0,0,0
280942508,d4:22:cd:00:30:92,0.6356431245803833,-0.008816246874630451,-0.003710342338308692,-0.7719237804412842,0.0026888905558735132,0.002628013025969267,0.09245586395263672,0,0,0
280959175,d4:22:cd:00:30:92,0.6356447339057922,-0.008818679489195347,-0.003713345853611827,-0.7719224095344543,0.0014142397558316588,-0.0059124487452209,0.09324455261230469,0,0,0
280975842,d4:22:cd:00:30:92,0.6356571912765503,-0.00882059894502163,-0.0037218602374196053,-0.771912157535553,0.0111439423635602,0.016159847378730774,0.09655189514160156,0,0,0
280992509,d4:22:cd:00:30:92,0.6356542706489563,-0.00881952978670597,-0.0037211328744888306,-0.771914541721344,0.005851127207279205,-0.003632948035374284,0.10719776153564453,0,0,0
281009176,d4:22:cd:00:30:92,0.6356602311134338,-0.00882211234420538,-0.003723947796970606,-0.7719095945358276,-0.003948853816837072,0.003068832913413644,0.09151458740234375,0,0,0
281025843,d4:22:cd:00:30:92,0.6356565952301025,-0.00881967507302761,-0.00372736481949687,-0.771912693977356,-0.0068518854677677155,-0.00701278867200017,0.10111331939697266,0,0,0
281042510,d4:22:cd:00:30:92,0.6356456875801086,-0.008817542344331741,-0.0037311273626983166,-0.771921694278717,0.000972352980170399,0.0055729602463543415,0.0902109146118164,0,0,0
281059177,d4:22:cd:00:30:92,0.6356444954872131,-0.008813928812742233,-0.0037359187845140696,-0.7719227075576782,0.00039095559623092413,-0.009781820699572563,0.07878780364990234,0,0,0
281075844,d4:22:cd:00:30:92,0.635628342628479,-0.00880690198391676,-0.0037449649535119534,-0.7719358801841736,-0.0017802388174459338,0.0059403665363788605,0.10234451293945312,0,0,0
281092511,d4:22:cd:00:30:92,0.6356345415115356,-0.008814198896288872,-0.003742836881428957,-0.7719306349754333,-0.003358722198754549,-0.0041884020902216434,0.10158157348632812,0,0,0
281109178,d4:22:cd:00:30:92,0.6356313228607178,-0.00880847591906786,-0.0037399085704237223,-0.7719334959983826,0.005680455826222897,0.003527666674926877,0.08722877502441406,0,0,0
281125845,d4:22:cd:00:30:92,0.6356483697891235,-0.008802724070847034,-0.0037421497981995344,-0.7719195485115051,-0.009328416548669338,-0.007286407053470612,0.08812904357910156,0,0,0
281142512,d4:22:cd:00:30:92,0.6356508135795593,-0.008803104050457478,-0.003740090411156416,-0.7719175815582275,-0.004873699974268675,-0.00390787236392498,0.09063148498535156,0,0,0
281159179,d4:22:cd:00:30:92,0.635649561882019,-0.008802118711173534,-0.00374154862947762,-0.7719185948371887,0.0035302876494824886,-0.0012665746035054326,0.09996891021728516,0,0,0
281175846,d4:22:cd:00:30:92,0.6356328129768372,-0.008798922412097454,-0.0037515596486628056,-0.7719323039054871,0.0008490331820212305,0.0055994815193116665,0.10040950775146484,0,0,0
281192513,d4:22:cd:00:30:92,0.6356446146965027,-0.008793680928647518,-0.0037599315401166677,-0.7719225287437439,-0.0002621859312057495,0.010125678032636642,0.08472061157226562,0,0,0
281209180,d4:22:cd:00:30:92,0.6356423497200012,-0.008804356679320335,-0.0037626230623573065,-0.7719243764877319,0.006977094803005457,0.006025462411344051,0.08344364166259766,0,0,0
281225847,d4:22:cd:00:30:92,0.6356459856033325,-0.008803813718259335,-0.0037671655882149935,-0.7719213962554932,-0.00045465154107660055,-0.013065055012702942,0.10139846801757812,0,0,0
281242514,d4:22:cd:00:30:92,0.6356477737426758,-0.008800304494798183,-0.003770318580791354,-0.7719199657440186,-0.006937531288713217,0.0016491798451170325,0.08447742462158203,0,0,0
281259181,d4:22:cd:00:30:92,0.6356489658355713,-0.0087984474375844,-0.00377541221678257,-0.7719190120697021,0.0024981903843581676,-0.00023005070397630334,0.10435962677001953,0,0,0
281275848,d4:22:cd:00:30:92,0.6356591582298279,-0.0087972953915596,-0.0037776336539536715,-0.7719106674194336,-0.006734752561897039,-0.00523150572553277,0.08425426483154297,0,0,0
281292515,d4:22:cd:00:30:92,0.6356626749038696,-0.008807516656816006,-0.0037772199138998985,-0.7719075083732605,-0.007109674625098705,-0.0059992484748363495,0.09368228912353516,0,0,0
281309182,d4:22:cd:00:30:92,0.6356654167175293,-0.00881223939359188,-0.0037788504268974066,-0.7719051241874695,0.0024984749034047127,0.0065179243683815,0.09978008270263672,0,0,0
281325849,d4:22:cd:00:30:92,0.6356610655784607,-0.008811835199594498,-0.003781436011195183,-0.7719087600708008,-0.004629913717508316,0.0012692846357822418,0.09276294708251953,0,0,0
281342516,d4:22:cd:00:30:92,0.6356512904167175,-0.008801067247986794,-0.0037902879994362593,-0.7719168663024902,-0.0014525495935231447,0.0028126765973865986,0.09730148315429688,0,0,0
281359183,d4:22:cd:00:30:92,0.635656476020813,-0.008817900903522968,-0.0037837803829461336,-0.7719124555587769,0.0007802714826539159,0.006251534912735224,0.09982490539550781,0,0,0
281375850,d4:22:cd:00:30:92,0.6356458067893982,-0.00881882756948471,-0.0037858481518924236,-0.7719212174415588,-0.009970473125576973,0.014944411814212799,0.1009664535522461,0,0,0
281392517,d4:22:cd:00:30:92,0.6356462836265564,-0.008827348239719868,-0.0037959811743348837,-0.7719206213951111,-0.0005081252893432975,0.007786622270941734,0.10019493103027344,0,0,0
281409184,d4:22:cd:00:30:92,0.6356338858604431,-0.008823448792099953,-0.003789702896028757,-0.7719308733940125,0.008398153819143772,-0.005676408298313618,0.09271717071533203,0,0,0
281425851,d4:22:cd:00:30:92,0.6356359720230103,-0.008808975107967854,-0.0037886726204305887,-0.7719293832778931,-0.00043089280370622873,0.006400831509381533,0.10393905639648438,0,0,0
281442518,d4:22:cd:00:30:92,0.6356511116027832,-0.00881750788539648,-0.003791989991441369,-0.7719168066978455,0.012584964744746685,-0.001229467918165028,0.09246826171875,0,0,0
281459185,d4:22:cd:00:30:92,0.6356509923934937,-0.008809627033770084,-0.003794786985963583,-0.7719170451164246,0.009639153257012367,-0.010843577794730663,0.10161781311035156,0,0,0
281475852,d4:22:cd:00:30:92,0.6356457471847534,-0.008808870799839497,-0.0037892230320721865,-0.7719213962554932,0.0030785819981247187,-0.014867883175611496,0.0951681137084961,0,0,0
281492519,d4:22:cd:00:30:92,0.6356480717658997,-0.008806545287370682,-0.0037936302833259106,-0.7719195485115051,-0.004505991470068693,-0.0012913391692563891,0.09752178192138672,0,0,0
281509186,d4:22:cd:00:30:92,0.635647714138031,-0.008811905980110168,-0.0037959744222462177,-0.7719196081161499,-0.006018612068146467,0.01400089729577303,0.08360862731933594,0,0,0
281525853,d4:22:cd:00:30:92,0.6356438398361206,-0.008826869539916515,-0.0037875438574701548,-0.7719226479530334,0.003321646945551038,0.0061304401606321335,0.08733844757080078,0,0,0
281542520,d4:22:cd:00:30:92,0.6356421709060669,-0.00882775615900755,-0.0037932919804006815,-0.7719240188598633,-0.008297345601022243,0.005948269739747047,0.08650779724121094,0,0,0
281559187,d4:22:cd:00:30:92,0.635631799697876,-0.008817878551781178,-0.0037975520826876163,-0.7719326615333557,0.00443000253289938,0.003993306774646044,0.0892324447631836,0,0,0
281575854,d4:22:cd:00:30:92,0.6356292963027954,-0.008813262917101383,-0.0037943273782730103,-0.7719348073005676,-0.006520044058561325,-0.009913916699588299,0.09929180145263672,0,0,0
281592521,d4:22:cd:00:30:92,0.635623574256897,-0.008812340907752514,-0.0037870306987315416,-0.7719395160675049,0.010109265334904194,0.0009421525173820555,0.0935821533203125,0,0,0
281609188,d4:22:cd:00:30:92,0.6356136798858643,-0.008805216290056705,-0.003782119369134307,-0.7719477415084839,0.012754658237099648,0.004170681815594435,0.09966850280761719,0,0,0
281625855,d4:22:cd:00:30:92,0.6356163620948792,-0.008821621537208557,-0.003789898008108139,-0.7719452977180481,-0.00788702443242073,-0.008943808265030384,0.09986591339111328,0,0,0
281642522,d4:22:cd:00:30:92,0.6356252431869507,-0.008811046369373798,-0.0037813575472682714,-0.7719383239746094,-0.0029492254834622145,-0.010933129116892815,0.08461380004882812,0,0,0
281659189,d4:22:cd:00:30:92,0.6356302499771118,-0.008812359534204006,-0.003780424129217863,-0.7719340324401855,-0.004027741961181164,-0.0022031322587281466,0.10361766815185547,0,0,0
281675856,d4:22:cd:00:30:92,0.6356251835823059,-0.008810804225504398,-0.003780498169362545,-0.7719382047653198,0.0026376256719231606,0.0035493788309395313,0.10587215423583984,0,0,0
281692523,d4:22:cd:00:30:92,0.635628342628479,-0.008809253573417664,-0.00378667120821774,-0.771935760974884,0.007159865461289883,-0.0011738097527995706,0.09633541107177734,0,0,0
281709190,d4:22:cd:00:30:92,0.6356345415115356,-0.008819139562547207,-0.0037762103602290154,-0.771930456161499,-0.013123496435582638,-0.0025897538289427757,0.09859657287597656,0,0,0
281725857,d4:22:cd:00:30:92,0.6356410384178162,-0.008818264119327068,-0.003763355780392885,-0.7719252705574036,-0.005785845685750246,0.0014416970079764724,0.08680915832519531,0,0,0
281742524,d4:22:cd:00:30:92,0.6356300711631775,-0.008819644339382648,-0.0037545450031757355,-0.7719342708587646,0.00409983703866601,-0.001284371828660369,0.08665943145751953,0,0,0
281759191,d4:22:cd:00:30:92,0.6356285214424133,-0.008832495659589767,-0.0037628309801220894,-0.7719354033470154,-0.0022666100412607193,-0.0026234483812004328,0.09133434295654297,0,0,0
281775858,d4:22:cd:00:30:92,0.6356304883956909,-0.008847147226333618,-0.0037554772570729256,-0.7719336748123169,-0.004358101170510054,0.00029739097226411104,0.0890188217163086,0,0,0
281792525,d4:22:cd:00:30:92,0.6356300115585327,-0.00884786993265152,-0.0037494744174182415,-0.7719339728355408,0.0024468591436743736,-0.0018779663369059563,0.09821033477783203,0,0,0
281809192,d4:22:cd:00:30:92,0.6356195211410522,-0.00884677842259407,-0.0037432124372571707,-0.7719426155090332,-0.0017685166094452143,0.010399911552667618,0.09565448760986328,0,0,0
281825859,d4:22:cd:00:30:92,0.6356207132339478,-0.00884540006518364,-0.0037298803217709064,-0.7719417810440063,0.0007652525091543794,0.0026346310041844845,0.08047103881835938,0,0,0
281842526,d4:22:cd:00:30:92,0.6356238722801208,-0.008834137581288815,-0.0037348463665694,-0.7719392776489258,-0.003859775373712182,-0.0026299511082470417,0.09295463562011719,0,0,0
281859193,d4:22:cd:00:30:92,0.6356210112571716,-0.008829955011606216,-0.003722995752468705,-0.7719417214393616,-0.007640807889401913,0.0018599036848172545,0.09759902954101562,0,0,0
281875860,d4:22:cd:00:30:92,0.6356245875358582,-0.008819187991321087,-0.0037174171302467585,-0.7719389796257019,0.0014000659575685859,0.006216691341251135,0.10108566284179688,0,0,0
281892527,d4:22:cd:00:30:92,0.6356274485588074,-0.008816296234726906,-0.00371386855840683,-0.7719367146492004,-0.011204936541616917,-0.009384327568113804,0.09720897674560547,0,0,0
281909194,d4:22:cd:00:30:92,0.6356203556060791,-0.008817384019494057,-0.003706517396494746,-0.7719424962997437,0.000586190668400377,-0.0069596488028764725,0.09028339385986328,0,0,0
281925861,d4:22:cd:00:30:92,0.6356202363967896,-0.008821189403533936,-0.003702184185385704,-0.7719425559043884,-0.008724353276193142,-0.0005496951634995639,0.08646392822265625,0,0,0
281942528,d4:22:cd:00:30:92,0.6356229186058044,-0.008812002837657928,-0.003700711764395237,-0.7719404101371765,0.0011645269114524126,-0.0042632510885596275,0.10274696350097656,0,0,0
281959195,d4:22:cd:00:30:92,0.635622501373291,-0.008807790465652943,-0.0037035858258605003,-0.7719409465789795,-0.010058822110295296,-0.00589861162006855,0.10193252563476562,0,0,0
281975862,d4:22:cd:00:30:92,0.6356296539306641,-0.00880084466189146,-0.0037023432087153196,-0.7719351649284363,0.0012509932275861502,0.0027159268502146006,0.09571361541748047,0,0,0
281992529,d4:22:cd:00:30:92,0.635623037815094,-0.008800181560218334,-0.003697355277836323,-0.7719406485557556,0.00007338559225900099,0.0013439625035971403,0.0958395004272461,0,0,0
282009196,d4:22:cd:00:30:92,0.635636031627655,-0.00879864301532507,-0.0037027865182608366,-0.7719299793243408,-0.007252770010381937,-0.0024769881274551153,0.09659767150878906,0,0,0
282025863,d4:22:cd:00:30:92,0.6356334686279297,-0.00880181510001421,-0.0037124508526176214,-0.7719319462776184,0.0000027362875698599964,0.002013774821534753,0.09640979766845703,0,0,0
282042530,d4:22:cd:00:30:92,0.6356440782546997,-0.008809720166027546,-0.0037199906073510647,-0.7719230055809021,0.011791675351560116,0.0031417610589414835,0.09309864044189453,0,0,0
282059197,d4:22:cd:00:30:92,0.6356720924377441,-0.008812186308205128,-0.0037158599589020014,-0.771899938583374,-0.006209834478795528,0.000042771298467414454,0.09375762939453125,0,0,0
282075864,d4:22:cd:00:30:92,0.6356691718101501,-0.008815377950668335,-0.0037157873157411814,-0.7719023823738098,0.00680945860221982,0.002397082047536969,0.09072303771972656,0,0,0
282092531,d4:22:cd:00:30:92,0.6356676816940308,-0.008815081790089607,-0.0037127381656318903,-0.7719035744667053,0.005574910901486874,-0.011749600991606712,0.10683917999267578,0,0,0
282109198,d4:22:cd:00:30:92,0.6356847286224365,-0.008817917667329311,-0.003715160768479109,-0.7718894481658936,0.008710135705769062,-0.016115127131342888,0.1033315658569336,0,0,0
282125865,d4:22:cd:00:30:92,0.6356873512268066,-0.0088327182456851,-0.003715183585882187,-0.7718871235847473,-0.012622935697436333,0.0008686237270012498,0.0948486328125,0,0,0
282142532,d4:22:cd:00:30:92,0.6356906890869141,-0.008834931999444962,-0.003713873215019703,-0.7718843221664429,-0.0012147859670221806,-0.003400941612198949,0.09319210052490234,0,0,0
282159199,d4:22:cd:00:30:92,0.6356977224349976,-0.008836114779114723,-0.0037026978097856045,-0.7718786001205444,0.003323592245578766,-0.008267052471637726,0.0924367904663086,0,0,0
282175866,d4:22:cd:00:30:92,0.635703444480896,-0.008827026933431625,-0.0036999648436903954,-0.7718740701675415,0.007351999636739492,0.005711143836379051,0.09668827056884766,0,0,0
282192533,d4:22:cd:00:30:92,0.6357057094573975,-0.008835011161863804,-0.0036916895769536495,-0.7718721628189087,-0.009687569923698902,-0.007719847839325666,0.09401321411132812,0,0,0
282209200,d4:22:cd:00:30:92,0.6357181668281555,-0.00884128175675869,-0.003702709684148431,-0.7718617916107178,-0.005255123134702444,0.0032845402602106333,0.10416603088378906,0,0,0
282225867,d4:22:cd:00:30:92,0.6357320547103882,-0.008843056857585907,-0.003698593471199274,-0.7718502283096313,-0.007012526970356703,-0.0019966098479926586,0.08923721313476562,0,0,0
282242534,d4:22:cd:00:30:92,0.6357368230819702,-0.0088453758507967,-0.0037016100250184536,-0.7718462944030762,-0.004053767304867506,0.013527472503483295,0.08873558044433594,0,0,0
282259201,d4:22:cd:00:30:92,0.6357198357582092,-0.008845033124089241,-0.0037004032637923956,-0.7718603610992432,-0.0012016929686069489,-0.006017513573169708,0.10982227325439453,0,0,0
282275868,d4:22:cd:00:30:92,0.6357224583625793,-0.008839410729706287,-0.0036992242094129324,-0.771858274936676,0.001057373476214707,0.004081290680915117,0.08517646789550781,0,0,0
282292535,d4:22:cd:00:30:92,0.6357192397117615,-0.008833447471261024,-0.0036966409534215927,-0.7718609571456909,0.0019826367497444153,-0.010497150011360645,0.08838844299316406,0,0,0
282309202,d4:22:cd:00:30:92,0.6357247829437256,-0.008832931518554688,-0.003704442409798503,-0.7718563675880432,-0.009506351314485073,-0.00015130429528653622,0.08876705169677734,0,0,0
282325869,d4:22:cd:00:30:92,0.6357285380363464,-0.008824283257126808,-0.003708189819008112,-0.7718533277511597,-0.004827544558793306,0.0035457152407616377,0.08914661407470703,0,0,0
282342536,d4:22:cd:00:30:92,0.6357204914093018,-0.0088184280321002,-0.0037037301808595657,-0.7718600034713745,0.0013862744672223926,0.004646680783480406,0.09534168243408203,0,0,0
282359203,d4:22:cd:00:30:92,0.63572096824646,-0.008822680450975895,-0.0037008209619671106,-0.7718597054481506,-0.006935228127986193,-0.006013046950101852,0.08477592468261719,0,0,0
282375870,d4:22:cd:00:30:92,0.6357294321060181,-0.008820501156151295,-0.0037162841763347387,-0.7718526721000671,-0.012830236926674843,0.006317698396742344,0.08591556549072266,0,0,0
282392537,d4:22:cd:00:30:92,0.6357777714729309,-0.008813117630779743,-0.0037808266934007406,-0.7718127369880676,0.006920717190951109,0.0015406364109367132,0.10194683074951172,0,0,0
282409204,d4:22:cd:00:30:92,0.6357837915420532,-0.008823961019515991,-0.0037720801774412394,-0.7718075513839722,-0.005073017906397581,0.0018139822641387582,0.09395217895507812,0,0,0
282425871,d4:22:cd:00:30:92,0.6358003616333008,-0.008819018490612507,-0.003813211340457201,-0.771793782711029,0.001811928697861731,-0.012632571160793304,0.08284473419189453,0,0,0
282442538,d4:22:cd:00:30:92,0.636415421962738,-0.008822503499686718,-0.0038686722982674837,-0.7712863683700562,0.022113190963864326,-0.07521665096282959,0.11056995391845703,0,0,0
282459205,d4:22:cd:00:30:92,0.6373921036720276,-0.008834704756736755,-0.003764589549973607,-0.7704798579216003,-0.031608130782842636,0.013440770097076893,0.08135414123535156,0,0,0
282475872,d4:22:cd:00:30:92,0.6382513642311096,-0.008852546103298664,-0.003692765487357974,-0.769768238067627,0.011235964484512806,0.004784008488059044,0.0976400375366211,0,0,0
282492539,d4:22:cd:00:30:92,0.6389098763465881,-0.008847246877849102,-0.003768370719626546,-0.7692215442657471,0.00013329404464457184,-0.022416941821575165,0.08684635162353516,0,0,0
282509206,d4:22:cd:00:30:92,0.6399908065795898,-0.00887264683842659,-0.0037417865823954344,-0.7683222889900208,0.00043636365444399416,-0.0050156377255916595,0.09447860717773438,0,0,0
282525873,d4:22:cd:00:30:92,0.640187680721283,-0.008861616253852844,-0.0038268440403044224,-0.7681580185890198,-0.017648691311478615,0.07761223614215851,0.07261371612548828,0,0,0
282542540,d4:22:cd:00:30:92,0.6403844356536865,-0.008858432993292809,-0.003907874692231417,-0.7679935693740845,0.0036431336775422096,-0.04277373105287552,0.10435771942138672,0,0,0
282559207,d4:22:cd:00:30:92,0.6406766176223755,-0.008871061727404594,-0.0038578971289098263,-0.7677499055862427,-0.0016992869786918163,0.019964152947068214,0.0980081558227539,0,0,0
282575874,d4:22:cd:00:30:92,0.6406512260437012,-0.008868330158293247,-0.0039035144727677107,-0.7677709460258484,0.004500438459217548,0.003048933343961835,0.09763240814208984,0,0,0
282592541,d4:22:cd:00:30:92,0.6406412124633789,-0.008868768811225891,-0.003885287092998624,-0.7677794694900513,0.0020520323887467384,-0.0021687427069991827,0.08851146697998047,0,0,0
282609208,d4:22:cd:00:30:92,0.6406255960464478,-0.008872296661138535,-0.00384522951208055,-0.7677924633026123,0.005411316640675068,0.0007213950739242136,0.07461071014404297,0,0,0
282625875,d4:22:cd:00:30:92,0.640615701675415,-0.008876831270754337,-0.0038155438378453255,-0.7678008079528809,0.010372710414230824,0.00686561269685626,0.08869457244873047,0,0,0
282642542,d4:22:cd:00:30:92,0.6406134366989136,-0.008876373060047626,-0.0038164181169122458,-0.7678027749061584,0.013301086612045765,-0.006929317023605108,0.10243892669677734,0,0,0
282659209,d4:22:cd:00:30:92,0.6406214237213135,-0.008891458623111248,-0.0037721116095781326,-0.7677962183952332,-0.0032107618171721697,-0.00037792898365296423,0.08487224578857422,0,0,0
282675876,d4:22:cd:00:30:92,0.6406139135360718,-0.008892611600458622,-0.003824264509603381,-0.7678022384643555,0.0012465823674574494,0.012864884920418262,0.08890914916992188,0,0,0
282692543,d4:22:cd:00:30:92,0.6406064033508301,-0.008885351940989494,-0.0038564607966691256,-0.7678082585334778,0.012029343284666538,0.00595583813264966,0.0977020263671875,0,0,0
282709210,d4:22:cd:00:30:92,0.6405959725379944,-0.008885587565600872,-0.003887628437951207,-0.767816960811615,0.0007371981046162546,0.004372479394078255,0.09394550323486328,0,0,0
282725877,d4:22:cd:00:30:92,0.6405906081199646,-0.008903851732611656,-0.003895955625921488,-0.7678211331367493,0.010120982304215431,-0.011358428746461868,0.10803031921386719,0,0,0
282742544,d4:22:cd:00:30:92,0.6405834555625916,-0.008918771520256996,-0.003861810779199004,-0.7678271532058716,-0.0011581096332520247,0.0003349970211274922,0.0850067138671875,0,0,0
282759211,d4:22:cd:00:30:92,0.640561044216156,-0.00891843345016241,-0.0038393985014408827,-0.7678458094596863,-0.009019959717988968,0.010152105242013931,0.09378623962402344,0,0,0
282775878,d4:22:cd:00:30:92,0.6405603289604187,-0.008926074020564556,-0.00382000464014709,-0.7678463459014893,-0.004817537032067776,-0.00970803014934063,0.10043048858642578,0,0,0
282792545,d4:22:cd:00:30:92,0.6405520439147949,-0.00891927257180214,-0.003804321400821209,-0.7678535580635071,0.023688187822699547,-0.01602441817522049,0.09898662567138672,0,0,0
282809212,d4:22:cd:00:30:92,0.640550971031189,-0.008932467550039291,-0.003755554324015975,-0.7678545117378235,-0.01520499400794506,0.006259627174586058,0.09541893005371094,0,0,0
282825879,d4:22:cd:00:30:92,0.6405391097068787,-0.008927385322749615,-0.0037248064763844013,-0.7678645849227905,-0.0008347807452082634,-0.008908625692129135,0.10084724426269531,0,0,0
282842546,d4:22:cd:00:30:92,0.6405286192893982,-0.008936374448239803,-0.0036663715727627277,-0.7678735256195068,-0.003880457254126668,0.006105032749474049,0.09393882751464844,0,0,0
282859213,d4:22:cd:00:30:92,0.6405203938484192,-0.008933808654546738,-0.0036707776598632336,-0.7678804397583008,0.011111361905932426,-0.004895915277302265,0.10012531280517578,0,0,0
282875880,d4:22:cd:00:30:92,0.6405224204063416,-0.008925238624215126,-0.0036755444016307592,-0.7678787708282471,0.0017789413686841726,0.009237878024578094,0.08664798736572266,0,0,0
282892547,d4:22:cd:00:30:92,0.6405283808708191,-0.00891881063580513,-0.00366815272718668,-0.7678739428520203,0.0007994185434654355,0.011904146522283554,0.09302520751953125,0,0,0
282909214,d4:22:cd:00:30:92,0.6405187249183655,-0.00890826154500246,-0.003662130096927285,-0.7678821682929993,0.012832549400627613,0.00453174626454711,0.0806436538696289,0,0,0
282925881,d4:22:cd:00:30:92,0.6405181288719177,-0.008916881866753101,-0.003663048380985856,-0.7678825259208679,0.021303368732333183,-0.002075370168313384,0.08505725860595703,0,0,0
282942548,d4:22:cd:00:30:92,0.6405093669891357,-0.008925240486860275,-0.0036537949927151203,-0.7678898572921753,0.004315612372010946,-0.00935627706348896,0.09918689727783203,0,0,0
282959215,d4:22:cd:00:30:92,0.6405032873153687,-0.008922822773456573,-0.0036409576423466206,-0.7678951621055603,0.005876537878066301,0.009491045027971268,0.09552955627441406,0,0,0
282975882,d4:22:cd:00:30:92,0.6405019164085388,-0.008926574140787125,-0.0036442631389945745,-0.7678960561752319,0.007082084659487009,0.008337962441146374,0.09301376342773438,0,0,0
282992549,d4:22:cd:00:30:92,0.6404861807823181,-0.008922938257455826,-0.0036295191384851933,-0.7679093480110168,0.009492944926023483,-0.00914997048676014,0.0849142074584961,0,0,0
283009216,d4:22:cd:00:30:92,0.6404750347137451,-0.008922076784074306,-0.003627273254096508,-0.7679186463356018,-0.000062440441979561,0.009460416622459888,0.0944070816040039,0,0,0
283025883,d4:22:cd:00:30:92,0.6404727101325989,-0.008925346657633781,-0.0036208373494446278,-0.7679205536842346,0.00558409234508872,0.0064141759648919106,0.1025705337524414,0,0,0
283042550,d4:22:cd:00:30:92,0.640460729598999,-0.008930323645472527,-0.0036222313065081835,-0.7679305076599121,0.011137685738503933,-0.002719269134104252,0.09799957275390625,0,0,0
283059217,d4:22:cd:00:30:92,0.6404533982276917,-0.008933513425290585,-0.0036184326745569706,-0.7679365873336792,0.004401486832648516,-0.0034386070910841227,0.08959102630615234,0,0,0
283075884,d4:22:cd:00:30:92,0.6404455900192261,-0.008940729312598705,-0.0036094081588089466,-0.7679430246353149,0.009690823033452034,-0.00020730477990582585,0.0979452133178711,0,0,0
283092551,d4:22:cd:00:30:92,0.6404396295547485,-0.008952395059168339,-0.0036033159121870995,-0.7679479122161865,0.0035108262673020363,-0.004940565209835768,0.08902263641357422,0,0,0
283109218,d4:22:cd:00:30:92,0.6404397487640381,-0.008961642161011696,-0.003597007365897298,-0.7679477334022522,0.00859310943633318,0.008245899342000484,0.09734439849853516,0,0,0
283125885,d4:22:cd:00:30:92,0.6404340267181396,-0.008963411673903465,-0.0035883106756955385,-0.7679525017738342,0.013773109763860703,-0.00154133141040802,0.09720897674560547,0,0,0
283142552,d4:22:cd:00:30:92,0.6404303312301636,-0.008967909961938858,-0.003582513891160488,-0.7679555416107178,0.007550414185971022,-0.004959731362760067,0.08780860900878906,0,0,0
283159219,d4:22:cd:00:30:92,0.6404373645782471,-0.008963163010776043,-0.00357464118860662,-0.7679497599601746,-0.005130362696945667,-0.00592429144307971,0.09255504608154297,0,0,0
283175886,d4:22:cd:00:30:92,0.6404327154159546,-0.00896445568650961,-0.0035727578215301037,-0.767953634262085,0.00480578001588583,-0.006180992349982262,0.0889425277709961,0,0,0
283192553,d4:22:cd:00:30:92,0.6404282450675964,-0.008970923721790314,-0.003574814647436142,-0.7679574489593506,-0.00039418257074430585,0.001248326851055026,0.08842754364013672,0,0,0
283209220,d4:22:cd:00:30:92,0.6404295563697815,-0.00897474680095911,-0.0035713794641196728,-0.7679563164710999,0.013068837113678455,-0.0034293383359909058,0.0928201675415039,0,0,0
283225887,d4:22:cd:00:30:92,0.6404280662536621,-0.00897455494850874,-0.0035667296033352613,-0.7679575085639954,-0.007000755984336138,0.00028966928948648274,0.09188365936279297,0,0,0
283242554,d4:22:cd:00:30:92,0.6404137015342712,-0.008963008411228657,-0.0035777390003204346,-0.76796954870224,0.00663609616458416,-0.007145443931221962,0.09460830688476562,0,0,0
283259221,d4:22:cd:00:30:92,0.6404038071632385,-0.00895676575601101,-0.0035749401431530714,-0.7679778337478638,-0.006929553113877773,0.0011806164402514696,0.09100055694580078,0,0,0
283275888,d4:22:cd:00:30:92,0.6403955221176147,-0.008958473801612854,-0.003567767795175314,-0.7679846882820129,0.0065695191733539104,0.011670400388538837,0.09143543243408203,0,0,0
283292555,d4:22:cd:00:30:92,0.6403895616531372,-0.008962776511907578,-0.003569095628336072,-0.7679896950721741,0.008211139589548111,0.0019861990585923195,0.09398937225341797,0,0,0
283309222,d4:22:cd:00:30:92,0.6403735876083374,-0.008966059423983097,-0.003574276575818658,-0.7680029273033142,0.004810040816664696,-0.010154877789318562,0.09202384948730469,0,0,0
283325889,d4:22:cd:00:30:92,0.6403718590736389,-0.008963310159742832,-0.003573479363694787,-0.7680043578147888,0.0039193155243992805,-0.004831232596188784,0.1032724380493164,0,0,0
283342556,d4:22:cd:00:30:92,0.6403658986091614,-0.008962160907685757,-0.003573987865820527,-0.7680095434188843,0.006321954075247049,0.00823250599205494,0.10291099548339844,0,0,0
283359223,d4:22:cd:00:30:92,0.6403533220291138,-0.008957158774137497,-0.003563664620742202,-0.7680200934410095,0.012115968391299248,0.0015996333677321672,0.09570121765136719,0,0,0
283375890,d4:22:cd:00:30:92,0.6403394341468811,-0.008959375321865082,-0.0035621861461549997,-0.7680315971374512,0.014439422637224197,-0.005610412452369928,0.09893608093261719,0,0,0
283392557,d4:22:cd:00:30:92,0.6403350830078125,-0.008945650421082973,-0.0035649538040161133,-0.768035352230072,0.01859268918633461,-0.014794591814279556,0.09669876098632812,0,0,0
283409224,d4:22:cd:00:30:92,0.6403265595436096,-0.008947589434683323,-0.0035628145560622215,-0.7680424451828003,0.0005501509294845164,0.0009297230863012373,0.09493446350097656,0,0,0
283425891,d4:22:cd:00:30:92,0.6403300166130066,-0.008942876011133194,-0.003559861332178116,-0.7680396437644958,-0.000800474954303354,-0.002127452287822962,0.09072494506835938,0,0,0
283442558,d4:22:cd:00:30:92,0.6403234601020813,-0.008942339569330215,-0.00357133150100708,-0.7680450677871704,0.010394553653895855,-0.008823816664516926,0.09793376922607422,0,0,0
283459225,d4:22:cd:00:30:92,0.6403276920318604,-0.008950663730502129,-0.0035738705191761255,-0.7680414915084839,0.009044485166668892,-0.005432681646198034,0.0932769775390625,0,0,0
283475892,d4:22:cd:00:30:92,0.6403213739395142,-0.008944463916122913,-0.0035667596384882927,-0.7680468559265137,0.0036180007737129927,0.00560051528736949,0.09642696380615234,0,0,0
283492559,d4:22:cd:00:30:92,0.6403228640556335,-0.008944458328187466,-0.00357062928378582,-0.7680456042289734,0.01054136548191309,-0.016353050246834755,0.09055805206298828,0,0,0
283509226,d4:22:cd:00:30:92,0.6403135061264038,-0.008952879346907139,-0.003557740245014429,-0.7680533528327942,0.002113884314894676,-0.00266544078476727,0.09034442901611328,0,0,0
283525893,d4:22:cd:00:30:92,0.6403005719184875,-0.008953583426773548,-0.0035620315466076136,-0.7680641412734985,-0.0006890607764944434,-0.005638041067868471,0.10620594024658203,0,0,0
283542560,d4:22:cd:00:30:92,0.6402971148490906,-0.008951710537075996,-0.0035618229303508997,-0.7680668830871582,0.01825619861483574,-0.006246341858059168,0.09374809265136719,0,0,0
283559227,d4:22:cd:00:30:92,0.6402833461761475,-0.008947737514972687,-0.0035630199126899242,-0.7680783867835999,0.01110535953193903,-0.02523486688733101,0.08665752410888672,0,0,0
283575894,d4:22:cd:00:30:92,0.6402669548988342,-0.008959922008216381,-0.0035649233032017946,-0.7680920362472534,0.004936715122312307,0.0048072850331664085,0.09626102447509766,0,0,0
283592561,d4:22:cd:00:30:92,0.6402642130851746,-0.00896100141108036,-0.003560848766937852,-0.7680942416191101,0.011961976997554302,-0.0023882254026830196,0.10674476623535156,0,0,0
283609228,d4:22:cd:00:30:92,0.6402530670166016,-0.008970863185822964,-0.003561458084732294,-0.7681034207344055,0.016377903521060944,0.0022305615711957216,0.09959602355957031,0,0,0
283625895,d4:22:cd:00:30:92,0.6402571201324463,-0.008972615003585815,-0.0035616455134004354,-0.7681000232696533,-0.0023173997178673744,-0.0023552991915494204,0.09795093536376953,0,0,0
283642562,d4:22:cd:00:30:92,0.6402549743652344,-0.008976244367659092,-0.003565853927284479,-0.7681017518043518,0.008532654494047165,0.0045890421606600285,0.09128856658935547,0,0,0
283659229,d4:22:cd:00:30:92,0.6402511596679688,-0.008983210660517216,-0.003557151183485985,-0.7681049108505249,-0.003279448486864567,0.004708859138190746,0.09617137908935547,0,0,0
283675896,d4:22:cd:00:30:92,0.6402304172515869,-0.008966462686657906,-0.003581092692911625,-0.7681222558021545,0.0029992260970175266,0.011099028401076794,0.09588241577148438,0,0,0
283692563,d4:22:cd:00:30:92,0.6399558782577515,-0.008924412541091442,-0.0038349211681634188,-0.7683503031730652,0.007885594852268696,0.009715843014419079,0.10554790496826172,0,0,0
283709230,d4:22:cd:00:30:92,0.6395958662033081,-0.008946596644818783,-0.0037105027586221695,-0.7686504125595093,0.03239048644900322,-0.012833952903747559,0.1092996597290039,0,0,0
283725897,d4:22:cd:00:30:92,0.6393479108810425,-0.008983978070318699,-0.003461682703346014,-0.7688574194908142,-0.016812041401863098,0.004453464411199093,0.07445049285888672,0,0,0
283742564,d4:22:cd:00:30:92,0.6390816569328308,-0.008943397551774979,-0.003787141991779208,-0.769077718257904,0.001923379604704678,-0.021145254373550415,0.08263778686523438,0,0,0
283759231,d4:22:cd:00:30:92,0.6389924883842468,-0.008924875408411026,-0.003872581757605076,-0.7691513895988464,0.017474843189120293,-0.01026953011751175,0.09801578521728516,0,0,0
283775898,d4:22:cd:00:30:92,0.6389104127883911,-0.008907472714781761,-0.003933843225240707,-0.7692196369171143,-0.00046537144226022065,-0.002692506881430745,0.09765243530273438,0,0,0
283792565,d4:22:cd:00:30:92,0.6386905312538147,-0.008889204822480679,-0.004018055275082588,-0.7694019675254822,0.011048899963498116,-0.0027980853337794542,0.09483909606933594,0,0,0
283809232,d4:22:cd:00:30:92,0.6385575532913208,-0.00892403069883585,-0.0038109056185930967,-0.7695130109786987,0.02533586323261261,-0.01402916107326746,0.11391258239746094,0,0,0
283825899,d4:22:cd:00:30:92,0.6383666396141052,-0.008929748088121414,-0.003836941672489047,-0.7696712017059326,0.002942361170426011,-0.0009350594482384622,0.11128520965576172,0,0,0
283842566,d4:22:cd:00:30:92,0.6383346319198608,-0.00894839409738779,-0.0037368666380643845,-0.7696979641914368,0.0031526030506938696,-0.009888667613267899,0.09799957275390625,0,0,0
283859233,d4:22:cd:00:30:92,0.6383146047592163,-0.008973434567451477,-0.003607467981055379,-0.7697149515151978,0.015979593619704247,-0.0033541505690664053,0.10504341125488281,0,0,0
283875900,d4:22:cd:00:30:92,0.6381816267967224,-0.009010269306600094,-0.0033785896375775337,-0.7698258757591248,0.009786759503185749,0.0130606759339571,0.09471797943115234,0,0,0
283892567,d4:22:cd:00:30:92,0.6379842758178711,-0.009035536088049412,-0.0033329720608890057,-0.7699893116950989,-0.017879696562886238,0.00020001266966573894,0.08495521545410156,0,0,0
283909234,d4:22:cd:00:30:92,0.6379650831222534,-0.00903076771646738,-0.0033543757162988186,-0.7700051665306091,0.013733782805502415,-0.00409106258302927,0.10641002655029297,0,0,0
283925901,d4:22:cd:00:30:92,0.6379224061965942,-0.009033255279064178,-0.003280434524640441,-0.77004075050354,-0.0002399621153017506,0.008240626193583012,0.087890625,0,0,0
283942568,d4:22:cd:00:30:92,0.6379076838493347,-0.009016377851366997,-0.003344082972034812,-0.7700529098510742,0.009841013699769974,-0.01611160673201084,0.09799003601074219,0,0,0
283959235,d4:22:cd:00:30:92,0.6377769112586975,-0.00903058610856533,-0.003295821836218238,-0.7701611518859863,0.0155384112149477,-0.00457822997123003,0.0994119644165039,0,0,0
283975902,d4:22:cd:00:30:92,0.6375880837440491,-0.009044165723025799,-0.0031859714072197676,-0.7703177332878113,0.00964279379695654,0.028468945994973183,0.09484386444091797,0,0,0
283992569,d4:22:cd:00:30:92,0.6371660232543945,-0.00908534787595272,-0.0028143110685050488,-0.7706679105758667,0.027797747403383255,0.011864930391311646,0.13226604461669922,0,0,0
284009236,d4:22:cd:00:30:92,0.6365127563476562,-0.009127523750066757,-0.0022405250929296017,-0.7712089419364929,-0.006200023926794529,-0.0024092704989016056,0.09371089935302734,0,0,0
284025903,d4:22:cd:00:30:92,0.635624349117279,-0.009148791432380676,-0.001754581811837852,-0.7719424366950989,-0.0039036013185977936,0.047114286571741104,0.0855255126953125,0,0,0
284042570,d4:22:cd:00:30:92,0.6348260641098022,-0.009143281728029251,-0.0017120132688432932,-0.7725990414619446,-0.01262983214110136,-0.03511415421962738,0.06315994262695312,0,0,0
284059237,d4:22:cd:00:30:92,0.63410484790802,-0.009089363738894463,-0.002380430931225419,-0.7731900811195374,-0.0046454607509076595,0.0605904646217823,0.07698535919189453,0,0,0
284075904,d4:22:cd:00:30:92,0.6332685947418213,-0.009055377915501595,-0.0028320823330432177,-0.773874044418335,0.01945181004703045,-0.03918282315135002,0.12729549407958984,0,0,0
284092571,d4:22:cd:00:30:92,0.6326667666435242,-0.009033368900418282,-0.002989961765706539,-0.7743657231330872,0.0040246546268463135,-0.0025520254857838154,0.07646465301513672,0,0,0
284109238,d4:22:cd:00:30:92,0.6314866542816162,-0.009009980596601963,-0.0031342115253210068,-0.7753281593322754,0.006458385847508907,0.11003900319337845,0.09677791595458984,0,0,0
284125905,d4:22:cd:00:30:92,0.6296722292900085,-0.008993547409772873,-0.003239318961277604,-0.7768021821975708,0.00948394276201725,-0.03721292316913605,0.09287357330322266,0,0,0
284142572,d4:22:cd:00:30:92,0.6276699304580688,-0.008990016765892506,-0.0031414933037012815,-0.7784214019775391,-0.006612475495785475,0.09562593698501587,0.09160614013671875,0,0,0
284159239,d4:22:cd:00:30:92,0.6250864863395691,-0.008946090005338192,-0.0032453052699565887,-0.7804975509643555,0.016927042976021767,-0.017381705343723297,0.11738967895507812,0,0,0
284175906,d4:22:cd:00:30:92,0.6227204203605652,-0.0089338980615139,-0.0032693000975996256,-0.7823867797851562,-0.0027702089864760637,-0.04504441097378731,0.09833908081054688,0,0,0
284192573,d4:22:cd:00:30:92,0.6209073662757874,-0.008921250700950623,-0.0033334693871438503,-0.7838262915611267,-0.0005219167214818299,-0.016908008605241776,0.09024429321289062,0,0,0
284209240,d4:22:cd:00:30:92,0.6193850040435791,-0.008903443813323975,-0.0033987564966082573,-0.7850297093391418,0.009078335016965866,-0.008138648234307766,0.10740280151367188,0,0,0
284225907,d4:22:cd:00:30:92,0.618356466293335,-0.008903696201741695,-0.003342278767377138,-0.7858403325080872,-0.008710179477930069,-0.043779291212558746,0.10435771942138672,0,0,0
284242574,d4:22:cd:00:30:92,0.6180671453475952,-0.008900274522602558,-0.0033652621787041426,-0.7860676646232605,-0.013976252637803555,-0.05562742426991463,0.09000778198242188,0,0,0
284259241,d4:22:cd:00:30:92,0.6180683374404907,-0.008878417313098907,-0.003551191184669733,-0.7860661745071411,-0.02014773152768612,0.023972438648343086,0.07242774963378906,0,0,0
284275908,d4:22:cd:00:30:92,0.6180627942085266,-0.008753902278840542,-0.004340342245995998,-0.7860680222511292,-0.013963200151920319,0.015062998980283737,0.08295249938964844,0,0,0
284292575,d4:22:cd:00:30:92,0.6180615425109863,-0.00864376686513424,-0.004933457355946302,-0.7860667705535889,0.00025240026297979057,0.01015980914235115,0.08775138854980469,0,0,0
284309242,d4:22:cd:00:30:92,0.6180750131607056,-0.008545675314962864,-0.005486991256475449,-0.7860536575317383,0.015578479506075382,-0.017721088603138924,0.11150455474853516,0,0,0
284325909,d4:22:cd:00:30:92,0.6181213855743408,-0.008518694899976254,-0.0056092101149261,-0.7860164642333984,0.009472479112446308,-0.030978769063949585,0.10526466369628906,0,0,0
284342576,d4:22:cd:00:30:92,0.6186094880104065,-0.008498449809849262,-0.005627890583127737,-0.7856325507164001,0.014976073056459427,-0.07288697361946106,0.11109352111816406,0,0,0
284359243,d4:22:cd:00:30:92,0.6193568706512451,-0.008493974804878235,-0.0056272330693900585,-0.7850436568260193,0.01599164679646492,-0.0692560225725174,0.10146331787109375,0,0,0
284375910,d4:22:cd:00:30:92,0.6205170154571533,-0.008479596115648746,-0.005667508579790592,-0.7841267585754395,-0.005860603880137205,-0.05086449533700943,0.09636878967285156,0,0,0
284392577,d4:22:cd:00:30:92,0.6215749979019165,-0.008446412160992622,-0.0057421536184847355,-0.7832882404327393,-0.03389057144522667,-0.08943549543619156,0.09905719757080078,0,0,0
284409244,d4:22:cd:00:30:92,0.6225243806838989,-0.008333848789334297,-0.005966159515082836,-0.7825332880020142,-0.027398081496357918,-0.02421729266643524,0.08691120147705078,0,0,0
284425911,d4:22:cd:00:30:92,0.6233487129211426,-0.007809990085661411,-0.006578405853360891,-0.7818773984909058,0.0230033490806818,0.14257298409938812,0.08801651000976562,0,0,0
284442578,d4:22:cd:00:30:92,0.6244513392448425,-0.007747217547148466,-0.00661107525229454,-0.7809975147247314,-0.007694803643971682,-0.08609020709991455,0.09304428100585938,0,0,0
284459245,d4:22:cd:00:30:92,0.6250139474868774,-0.007664507254958153,-0.006634942255914211,-0.7805478572845459,-0.004879658110439777,0.2422085851430893,0.10542011260986328,0,0,0
284475912,d4:22:cd:00:30:92,0.6251360177993774,-0.0074515389278531075,-0.006733729969710112,-0.7804512977600098,-0.04007912054657936,-0.007247393485158682,0.05172443389892578,0,0,0
284492579,d4:22:cd:00:30:92,0.6254487633705139,-0.006783582270145416,-0.007041920907795429,-0.7802040576934814,0.017861193045973778,-0.10075965523719788,0.12029075622558594,0,0,0
284509246,d4:22:cd:00:30:92,0.6258540153503418,-0.006618173327296972,-0.007101316004991531,-0.7798799872398376,-0.0017686790088191628,-0.025163669139146805,0.11009883880615234,0,0,0
284525913,d4:22:cd:00:30:92,0.6260726451873779,-0.00637768255546689,-0.0071664731949567795,-0.7797057628631592,-0.010958358645439148,0.07458898425102234,0.08530521392822266,0,0,0
284542580,d4:22:cd:00:30:92,0.626569390296936,-0.006497652735561132,-0.007117298431694508,-0.779306173324585,0.0337335541844368,-0.30614250898361206,0.1269979476928711,0,0,0
284559247,d4:22:cd:00:30:92,0.6280713081359863,-0.006683735642582178,-0.007031355984508991,-0.7780953645706177,0.02607693150639534,-0.16340765357017517,0.09061241149902344,0,0,0
284575914,d4:22:cd:00:30:92,0.6295376420021057,-0.006823670584708452,-0.006953361909836531,-0.7769089937210083,0.0014176134718582034,0.19770106673240662,0.11275482177734375,0,0,0
284592581,d4:22:cd:00:30:92,0.6304584741592407,-0.007043945603072643,-0.006835660897195339,-0.7761610746383667,-0.00011226985952816904,0.2827099561691284,0.10216331481933594,0,0,0
284609248,d4:22:cd:00:30:92,0.6307477355003357,-0.007162568159401417,-0.006749956402927637,-0.7759256362915039,-0.043764181435108185,0.08565759658813477,0.06161308288574219,0,0,0
284625915,d4:22:cd:00:30:92,0.6308268308639526,-0.007281440310180187,-0.00668227719143033,-0.7758607864379883,0.0012951178941875696,0.014986781403422356,0.0818796157836914,0,0,0
284642582,d4:22:cd:00:30:92,0.630837619304657,-0.007218244019895792,-0.006705055944621563,-0.7758524417877197,-0.010907282121479511,0.01389277633279562,0.08826828002929688,0,0,0
284659249,d4:22:cd:00:30:92,0.6307277083396912,-0.006965206936001778,-0.006836521439254284,-0.7759430408477783,-0.009271464310586452,0.01930754818022251,0.08594226837158203,0,0,0
284675916,d4:22:cd:00:30:92,0.6305119395256042,-0.00703595532104373,-0.006795236375182867,-0.7761180400848389,0.03232301026582718,-0.0006765667349100113,0.11225032806396484,0,0,0
284692583,d4:22:cd:00:30:92,0.6303773522377014,-0.007084966171532869,-0.0067662326619029045,-0.7762271761894226,-0.012521290220320225,-0.0023968934547156096,0.08786582946777344,0,0,0
284709250,d4:22:cd:00:30:92,0.6300060749053955,-0.006990885362029076,-0.006806377321481705,-0.7765290141105652,0.024956608191132545,-0.012843442149460316,0.09877967834472656,0,0,0
284725917,d4:22:cd:00:30:92,0.630009651184082,-0.007166494149714708,-0.006707474589347839,-0.7765253782272339,-0.0002393474569544196,0.006779210641980171,0.09810447692871094,0,0,0
284742584,d4:22:cd:00:30:92,0.6300143599510193,-0.00719109270721674,-0.006674977019429207,-0.776521623134613,-0.016630634665489197,-0.004343275912106037,0.08593273162841797,0,0,0
284759251,d4:22:cd:00:30:92,0.6300233006477356,-0.00717080058529973,-0.0066801696084439754,-0.7765143513679504,-0.006846421863883734,0.015901843085885048,0.10306167602539062,0,0,0
284775918,d4:22:cd:00:30:92,0.6300490498542786,-0.007129273843020201,-0.006694434210658073,-0.7764937281608582,-0.01352105662226677,0.0029473325703293085,0.09844779968261719,0,0,0
284792585,d4:22:cd:00:30:92,0.6307066082954407,-0.007144242525100708,-0.0066754440777003765,-0.7759599685668945,0.01121083740144968,-0.038383614271879196,0.11516571044921875,0,0,0
284809252,d4:22:cd:00:30:92,0.631242036819458,-0.0073996917344629765,-0.006560940761119127,-0.7755229473114014,0.0022404170595109463,0.0246439166367054,0.09962272644042969,0,0,0
284825919,d4:22:cd:00:30:92,0.6319778561592102,-0.007566207088530064,-0.006511278450489044,-0.7749223709106445,-0.0042776083573699,-0.050160109996795654,0.07854843139648438,0,0,0
284842586,d4:22:cd:00:30:92,0.6329941749572754,-0.007655663415789604,-0.006486280355602503,-0.7740916609764099,-0.009354216046631336,0.02589349076151848,0.08533000946044922,0,0,0
284859253,d4:22:cd:00:30:92,0.6338036060333252,-0.007704916875809431,-0.006463775411248207,-0.7734287977218628,0.001814478193409741,-0.0010880400659516454,0.0854959487915039,0,0,0
284875920,d4:22:cd:00:30:92,0.6344504952430725,-0.007734118495136499,-0.0064298296347260475,-0.7728981375694275,0.0037653062026947737,-0.015218057669699192,0.09186649322509766,0,0,0
284892587,d4:22:cd:00:30:92,0.6350303292274475,-0.007764127105474472,-0.00642112921923399,-0.7724215984344482,0.021802375093102455,0.012249850668013096,0.09210014343261719,0,0,0
284909254,d4:22:cd:00:30:92,0.6355999708175659,-0.00774724455550313,-0.006412719376385212,-0.7719532251358032,0.01733027584850788,-0.001944744260981679,0.089385986328125,0,0,0
284925921,d4:22:cd:00:30:92,0.6360722184181213,-0.007745292037725449,-0.006400894373655319,-0.7715643644332886,0.022450357675552368,0.0019359050784260035,0.103240966796875,0,0,0
284942588,d4:22:cd:00:30:92,0.6362541913986206,-0.007738462649285793,-0.00640104990452528,-0.7714142799377441,-0.025820674374699593,0.02430582605302334,0.0953207015991211,0,0,0
284959255,d4:22:cd:00:30:92,0.6365410685539246,-0.007753011770546436,-0.006394880823791027,-0.7711775302886963,0.0417729951441288,-0.018662840127944946,0.10122966766357422,0,0,0
284975922,d4:22:cd:00:30:92,0.6367931962013245,-0.007748577743768692,-0.006383944768458605,-0.7709692716598511,-0.0256493017077446,0.030038217082619667,0.09729862213134766,0,0,0
284992589,d4:22:cd:00:30:92,0.6368288993835449,-0.007799636572599411,-0.0063820695504546165,-0.7709393501281738,0.0018513997783884406,-0.00961244385689497,0.10462570190429688,0,0,0
285009256,d4:22:cd:00:30:92,0.6368489861488342,-0.007840842008590698,-0.006391091272234917,-0.7709222435951233,0.012140242382884026,0.0009071308304555714,0.09315872192382812,0,0,0
285025923,d4:22:cd:00:30:92,0.6370669007301331,-0.007907293736934662,-0.006392728537321091,-0.7707414627075195,0.03919633477926254,-0.017956217750906944,0.09406661987304688,0,0,0
285042590,d4:22:cd:00:30:92,0.6374238133430481,-0.007978664711117744,-0.006397648248821497,-0.7704455852508545,0.018708204850554466,0.009417432360351086,0.08896541595458984,0,0,0
285059257,d4:22:cd:00:30:92,0.6378143429756165,-0.008082536049187183,-0.006439794320613146,-0.7701209187507629,0.02509777434170246,0.013625821098685265,0.1119375228881836,0,0,0
285075924,d4:22:cd:00:30:92,0.6381980180740356,-0.008746904321014881,-0.007002875208854675,-0.7697907090187073,-0.0037947262171655893,0.09055256843566895,0.23756790161132812,0,0,0
285092591,d4:22:cd:00:30:92,0.6385931372642517,-0.010427536442875862,-0.008524097502231598,-0.769426703453064,0.031927917152643204,0.06011398509144783,0.20682716369628906,0,0,0
285109258,d4:22:cd:00:30:92,0.6390938758850098,-0.012749350629746914,-0.01052656676620245,-0.7689510583877563,0.01678185537457466,0.04302553832530975,0.12200450897216797,0,0,0
285125925,d4:22:cd:00:30:92,0.6395013332366943,-0.015281310304999352,-0.012701751664280891,-0.7685332298278809,-0.011736972257494926,0.029963592067360878,0.1555156707763672,0,0,0
285142592,d4:22:cd:00:30:92,0.6398339867591858,-0.018381213769316673,-0.01542779803276062,-0.768138587474823,0.011271835304796696,-0.005096674896776676,0.10318851470947266,0,0,0
285159259,d4:22:cd:00:30:92,0.6402474641799927,-0.020792128518223763,-0.01756907068192959,-0.7676863670349121,-0.015394692309200764,-0.04667733609676361,-0.015010833740234375,0,0,0
285175926,d4:22:cd:00:30:92,0.6403986215591431,-0.022873440757393837,-0.019414933398365974,-0.7674567699432373,-0.023145262151956558,0.05809694156050682,0.1320934295654297,0,0,0
285192593,d4:22:cd:00:30:92,0.6403341889381409,-0.025742048397660255,-0.021953897550702095,-0.7673511505126953,-0.0005404124385677278,0.10623235255479813,0.2189617156982422,0,0,0
285209260,d4:22:cd:00:30:92,0.6402415633201599,-0.028604285791516304,-0.024584250524640083,-0.767247200012207,0.0030467610340565443,-0.045125436037778854,-0.01817798614501953,0,0,0
285225927,d4:22:cd:00:30:92,0.6401855945587158,-0.03051326796412468,-0.02634221687912941,-0.767162024974823,0.005559619516134262,-0.012541884556412697,0.02518177032470703,0,0,0
285242594,d4:22:cd:00:30:92,0.6402490139007568,-0.032242998480796814,-0.02797006629407406,-0.7669807076454163,0.012203932739794254,0.04609806463122368,0.1390361785888672,0,0,0
285259261,d4:22:cd:00:30:92,0.6403037309646606,-0.034785885363817215,-0.03028322011232376,-0.7667360901832581,0.015875063836574554,0.1589576154947281,0.2548999786376953,0,0,0
285275928,d4:22:cd:00:30:92,0.6402997970581055,-0.038810085505247116,-0.033819615840911865,-0.7663982510566711,0.04716506227850914,0.1663106381893158,0.2873573303222656,0,0,0
285292595,d4:22:cd:00:30:92,0.6402108669281006,-0.04370323568582535,-0.038088198751211166,-0.7660088539123535,-0.0011630916269496083,0.07103443145751953,0.11249637603759766,0,0,0
285309262,d4:22:cd:00:30:92,0.6400174498558044,-0.04826598986983299,-0.04221060127019882,-0.7656804323196411,-0.016164233908057213,0.027908582240343094,0.050650596618652344,0,0,0
285325929,d4:22:cd:00:30:92,0.6397232413291931,-0.053167831152677536,-0.04647139087319374,-0.7653549313545227,-0.06762602180242538,0.05390774831175804,0.19683456420898438,0,0,0
285342596,d4:22:cd:00:30:92,0.6395401358604431,-0.05916332080960274,-0.05160229280591011,-0.7647387981414795,-0.014134707860648632,0.016067061573266983,0.24637126922607422,0,0,0
285359263,d4:22:cd:00:30:92,0.6394625902175903,-0.0658000111579895,-0.057426612824201584,-0.7638457417488098,0.021773627027869225,-0.06342839449644089,0.1235818862915039,0,0,0
285375930,d4:22:cd:00:30:92,0.6393896341323853,-0.07148026674985886,-0.06254506856203079,-0.7629939317703247,-0.04300431162118912,-0.07428944855928421,-0.13817501068115234,0,0,0
285392597,d4:22:cd:00:30:92,0.6391682028770447,-0.07536442577838898,-0.06609168648719788,-0.7625064849853516,-0.04656610265374184,-0.0738302692770958,-0.04320335388183594,0,0,0
285409264,d4:22:cd:00:30:92,0.639001727104187,-0.07892132550477982,-0.06920980662107468,-0.7620093822479248,0.08562228083610535,0.05423438549041748,0.109405517578125,0,0,0
285425931,d4:22:cd:00:30:92,0.6391180157661438,-0.08287383615970612,-0.07259222865104675,-0.761177122592926,0.00930878333747387,0.06000853329896927,0.21857833862304688,0,0,0
285442598,d4:22:cd:00:30:92,0.6392057538032532,-0.08764844387769699,-0.07678653299808502,-0.760156512260437,-0.015320779755711555,0.07958212494850159,0.22910499572753906,0,0,0
285459265,d4:22:cd:00:30:92,0.6390727758407593,-0.0931955948472023,-0.08168308436870575,-0.7590972185134888,-0.023218413814902306,0.025998355820775032,0.1901111602783203,0,0,0
285475932,d4:22:cd:00:30:92,0.6387667655944824,-0.09894414246082306,-0.08655302971601486,-0.7580869197845459,-0.024663537740707397,-0.0521274134516716,0.1187591552734375,0,0,0
285492599,d4:22:cd:00:30:92,0.6382840275764465,-0.10456939786672592,-0.09129313379526138,-0.7571818828582764,-0.013432122766971588,-0.03189222514629364,0.07953643798828125,0,0,0
285509266,d4:22:cd:00:30:92,0.6378447413444519,-0.10956984013319016,-0.09562712907791138,-0.7563095092773438,0.02778511866927147,-0.08544068038463593,-0.017823219299316406,0,0,0
285525933,d4:22:cd:00:30:92,0.6375514268875122,-0.1133195161819458,-0.09898459911346436,-0.7555720210075378,0.003908906131982803,-0.07495870441198349,0.014863014221191406,0,0,0
285542600,d4:22:cd:00:30:92,0.637429416179657,-0.11680785566568375,-0.10216137021780014,-0.7547204494476318,-0.005423262249678373,-0.04661150276660919,0.1310138702392578,0,0,0
285559267,d4:22:cd:00:30:92,0.6372175812721252,-0.12083759158849716,-0.10571527481079102,-0.753774881362915,0.011543438769876957,-0.013125072233378887,0.21833229064941406,0,0,0
285575934,d4:22:cd:00:30:92,0.636933445930481,-0.12572941184043884,-0.10995984077453613,-0.7526066303253174,-0.00014293653657659888,0.015642106533050537,0.19092273712158203,0,0,0
285592601,d4:22:cd:00:30:92,0.6365200281143188,-0.13089823722839355,-0.11465338617563248,-0.7513737678527832,0.008711696602404118,0.023079724982380867,0.12294864654541016,0,0,0
285609268,d4:22:cd:00:30:92,0.6359155774116516,-0.13627523183822632,-0.11935773491859436,-0.7501962184906006,0.012149494141340256,-0.032359927892684937,0.14773273468017578,0,0,0
285625935,d4:22:cd:00:30:92,0.6352951526641846,-0.14142288267612457,-0.12362668663263321,-0.7490770220756531,-0.013680222444236279,0.035483911633491516,0.048842430114746094,0,0,0
285642602,d4:22:cd:00:30:92,0.6346142888069153,-0.14584189653396606,-0.1272546947002411,-0.7481986284255981,-0.01703593321144581,-0.00473048398271203,0.06577587127685547,0,0,0
285659269,d4:22:cd:00:30:92,0.633979320526123,-0.14997327327728271,-0.13099068403244019,-0.7472749352455139,-0.009655424393713474,-0.07825998961925507,0.18218040466308594,0,0,0
285675936,d4:22:cd:00:30:92,0.6332911252975464,-0.15445776283740997,-0.13520187139511108,-0.746194064617157,-0.04165555164217949,-0.02911032736301422,0.1592702865600586,0,0,0
285692603,d4:22:cd:00:30:92,0.6325653791427612,-0.15857161581516266,-0.13931557536125183,-0.7451896071434021,-0.026415990665555,-0.04432094097137451,0.0393829345703125,0,0,0
285709270,d4:22:cd:00:30:92,0.6318224668502808,-0.16168788075447083,-0.14254724979400635,-0.7445387244224548,-0.021134043112397194,-0.040774013847112656,0.04136943817138672,0,0,0
285725937,d4:22:cd:00:30:92,0.6312897801399231,-0.16433954238891602,-0.1452656388282776,-0.7438841462135315,0.007714549545198679,-0.021184558048844337,0.1430950164794922,0,0,0
285742604,d4:22:cd:00:30:92,0.6309012770652771,-0.1668614000082016,-0.14763939380645752,-0.7431847453117371,0.012574279680848122,-0.039466798305511475,0.08822822570800781,0,0,0
285759271,d4:22:cd:00:30:92,0.6305506229400635,-0.1689215898513794,-0.14951518177986145,-0.742641806602478,-0.02467532828450203,-0.06463994830846786,0.10495376586914062,0,0,0
285775938,d4:22:cd:00:30:92,0.6299207806587219,-0.17091667652130127,-0.15135440230369568,-0.7423471212387085,-0.04242890700697899,0.02137867920100689,0.16779804229736328,0,0,0
285792605,d4:22:cd:00:30:92,0.629062831401825,-0.17317615449428558,-0.1534692496061325,-0.7421167492866516,-0.017258217558264732,-0.0032490959856659174,0.16710948944091797,0,0,0
285809272,d4:22:cd:00:30:92,0.6281507611274719,-0.17570404708385468,-0.15600426495075226,-0.7417664527893066,-0.0028291151393204927,-0.07292188704013824,0.1991424560546875,0,0,0
285825939,d4:22:cd:00:30:92,0.6274009943008423,-0.17843833565711975,-0.15906108915805817,-0.7410987615585327,0.010999966412782669,-0.06349064409732819,0.1493997573852539,0,0,0
285842606,d4:22:cd:00:30:92,0.6265568137168884,-0.18111282587051392,-0.16194404661655426,-0.7405397295951843,-0.024189019575715065,-0.03673971816897392,0.12865447998046875,0,0,0
285859273,d4:22:cd:00:30:92,0.6257390379905701,-0.18364639580249786,-0.16471631824970245,-0.739995539188385,-0.017337452620267868,-0.05905212461948395,0.12137126922607422,0,0,0
285875940,d4:22:cd:00:30:92,0.6249259114265442,-0.18625402450561523,-0.16755633056163788,-0.7393930554389954,-0.03162674978375435,-0.041814468801021576,0.14761924743652344,0,0,0
285892607,d4:22:cd:00:30:92,0.6239197254180908,-0.18887218832969666,-0.17044204473495483,-0.7389188408851624,-0.04291672259569168,0.05687465891242027,0.15207481384277344,0,0,0
285909274,d4:22:cd:00:30:92,0.622667133808136,-0.19151116907596588,-0.17328262329101562,-0.7386354207992554,-0.06373874098062515,-0.012594619765877724,0.12891578674316406,0,0,0
285925941,d4:22:cd:00:30:92,0.6214838624000549,-0.19405707716941833,-0.17589563131332397,-0.738349974155426,-0.015470560640096664,-0.05333276093006134,0.14928150177001953,0,0,0
285942608,d4:22:cd:00:30:92,0.6205950975418091,-0.19660347700119019,-0.17855864763259888,-0.7377843856811523,-0.0235730167478323,-0.03427336364984512,0.12841320037841797,0,0,0
285959275,d4:22:cd:00:30:92,0.6197198629379272,-0.199041947722435,-0.18106777966022491,-0.7372545003890991,-0.03364216536283493,-0.06593084335327148,0.13010406494140625,0,0,0
285975942,d4:22:cd:00:30:92,0.6189404726028442,-0.20131994783878326,-0.18329329788684845,-0.7367407083511353,-0.01949278824031353,-0.08921162039041519,0.09642696380615234,0,0,0
285992609,d4:22:cd:00:30:92,0.6181132793426514,-0.2034456580877304,-0.18467602133750916,-0.7365058660507202,-0.018992342054843903,0.007351788226515055,0.12242603302001953,0,0,0
286009276,d4:22:cd:00:30:92,0.6173744201660156,-0.2055048793554306,-0.18628443777561188,-0.7361487150192261,-0.02379843033850193,-0.08352332562208176,0.15104293823242188,0,0,0
286025943,d4:22:cd:00:30:92,0.6167139410972595,-0.2076854705810547,-0.18826037645339966,-0.735587477684021,-0.021579952910542488,0.06081005185842514,0.13835620880126953,0,0,0
286042610,d4:22:cd:00:30:92,0.6160278916358948,-0.20981575548648834,-0.1902322620153427,-0.7350501418113708,-0.02103346399962902,-0.0180132444947958,0.12742137908935547,0,0,0
286059277,d4:22:cd:00:30:92,0.6153174638748169,-0.2121005654335022,-0.19238990545272827,-0.7344276905059814,-0.0268838033080101,-0.004522002302110195,0.138427734375,0,0,0
286075944,d4:22:cd:00:30:92,0.6147051453590393,-0.21454957127571106,-0.19498120248317719,-0.7335453033447266,-0.011004213243722916,0.02046775259077549,0.17936134338378906,0,0,0
286092611,d4:22:cd:00:30:92,0.6142486929893494,-0.2172052413225174,-0.19785669445991516,-0.7323752045631409,-0.0009520534076727927,-0.06040225178003311,0.11789512634277344,0,0,0
286109278,d4:22:cd:00:30:92,0.6141652464866638,-0.21939784288406372,-0.20087237656116486,-0.7309693694114685,-0.08667486160993576,-0.1374545395374298,0.10207939147949219,0,0,0
286125945,d4:22:cd:00:30:92,0.6139267086982727,-0.22140243649482727,-0.20346106588840485,-0.7298484444618225,-0.04948532208800316,-0.025292502716183662,0.0862569808959961,0,0,0
286142612,d4:22:cd:00:30:92,0.613659679889679,-0.22342327237129211,-0.20606903731822968,-0.7287245988845825,-0.04216907173395157,-0.013448439538478851,0.17169761657714844,0,0,0
286159279,d4:22:cd:00:30:92,0.6135785579681396,-0.22629883885383606,-0.20950934290885925,-0.726922333240509,-0.009761481545865536,0.016675742343068123,0.26508426666259766,0,0,0
286175946,d4:22:cd:00:30:92,0.6135159730911255,-0.230210542678833,-0.21358750760555267,-0.7245561480522156,0.0334312804043293,0.14971870183944702,0.1931600570678711,0,0,0
286192613,d4:22:cd:00:30:92,0.6128907799720764,-0.23460523784160614,-0.21749423444271088,-0.7225106954574585,-0.07701027393341064,-0.08361977338790894,0.14081859588623047,0,0,0
286209280,d4:22:cd:00:30:92,0.6119879484176636,-0.23898345232009888,-0.22113695740699768,-0.720733106136322,-0.09990458935499191,-0.08724839240312576,0.11452484130859375,0,0,0
286225947,d4:22:cd:00:30:92,0.610762357711792,-0.2432519942522049,-0.22480253875255585,-0.7192091345787048,-0.05854608863592148,-0.03555789217352867,0.15706157684326172,0,0,0
286242614,d4:22:cd:00:30:92,0.6098144054412842,-0.24779453873634338,-0.22870270907878876,-0.7172304391860962,-0.0262942872941494,-0.0486421175301075,0.17135047912597656,0,0,0
286259281,d4:22:cd:00:30:92,0.6090764403343201,-0.25206467509269714,-0.23245611786842346,-0.7151598334312439,0.0010543105890974402,-0.04072238504886627,0.114501953125,0,0,0
286275948,d4:22:cd:00:30:92,0.6081380248069763,-0.25644850730895996,-0.23604536056518555,-0.713221549987793,-0.0581064410507679,0.008410122245550156,0.19734859466552734,0,0,0
286292615,d4:22:cd:00:30:92,0.6072980165481567,-0.261233389377594,-0.24010396003723145,-0.7108420729637146,-0.0519629642367363,-0.052596285939216614,0.1670207977294922,0,0,0
286309282,d4:22:cd:00:30:92,0.6066985726356506,-0.2657536566257477,-0.24438193440437317,-0.7082156538963318,0.022164437919855118,0.06429339200258255,0.09928703308105469,0,0,0
286325949,d4:22:cd:00:30:92,0.605899453163147,-0.26951706409454346,-0.24793849885463715,-0.7062386870384216,-0.0000452613749075681,0.06906315684318542,0.09890174865722656,0,0,0
286342616,d4:22:cd:00:30:92,0.6049954891204834,-0.2738818824291229,-0.2519305646419525,-0.7039178609848022,-0.06744872033596039,-0.11846913397312164,0.27061939239501953,0,0,0
286359283,d4:22:cd:00:30:92,0.6042936444282532,-0.2791033983230591,-0.25718528032302856,-0.7005615830421448,-0.031571876257658005,-0.08277388662099838,0.16638851165771484,0,0,0
286375950,d4:22:cd:00:30:92,0.6040712594985962,-0.2835446000099182,-0.26229819655418396,-0.6970655918121338,0.002763961208984256,-0.028960686177015305,0.0691823959350586,0,0,0
286392617,d4:22:cd:00:30:92,0.6042331457138062,-0.28726306557655334,-0.2670947313308716,-0.6935723423957825,-0.01497704442590475,-0.11353687196969986,0.12865066528320312,0,0,0
286409284,d4:22:cd:00:30:92,0.6042747497558594,-0.29106366634368896,-0.27164483070373535,-0.6901761889457703,-0.033691782504320145,-0.003116888226941228,0.16370296478271484,0,0,0
286425951,d4:22:cd:00:30:92,0.6041886210441589,-0.29516977071762085,-0.2766232192516327,-0.6865206956863403,-0.058023851364851,-0.05879441276192665,0.17490863800048828,0,0,0
286442618,d4:22:cd:00:30:92,0.603945255279541,-0.2993388772010803,-0.28167369961738586,-0.6828664541244507,-0.05325598642230034,-0.11547081917524338,0.11489486694335938,0,0,0
286459285,d4:22:cd:00:30:92,0.6037960648536682,-0.3028007745742798,-0.2865929901599884,-0.6794165372848511,-0.06376198679208755,-0.13350239396095276,0.0788106918334961,0,0,0
286475952,d4:22:cd:00:30:92,0.6032926440238953,-0.3061283528804779,-0.29111248254776,-0.6764443516731262,0.0074272239580750465,0.05217619240283966,0.15773677825927734,0,0,0
286492619,d4:22:cd:00:30:92,0.6019600033760071,-0.3102068603038788,-0.293919175863266,-0.6745572686195374,-0.01640305668115616,-0.04291202872991562,0.1367807388305664,0,0,0
286509286,d4:22:cd:00:30:92,0.6007621884346008,-0.31392017006874084,-0.296711802482605,-0.6726821660995483,-0.011085683479905128,-0.052235424518585205,0.14506912231445312,0,0,0
286525953,d4:22:cd:00:30:92,0.5996442437171936,-0.31747934222221375,-0.2992357611656189,-0.6708888411521912,-0.0022506637033075094,0.049621328711509705,0.13512706756591797,0,0,0
286542620,d4:22:cd:00:30:92,0.5982840061187744,-0.3215186893939972,-0.3012816607952118,-0.6692619919776917,0.03698379546403885,0.04083894565701485,0.19910717010498047,0,0,0
286559287,d4:22:cd:00:30:92,0.596702516078949,-0.3261529207229614,-0.3029504120349884,-0.6676762104034424,-0.03133673965930939,-0.054965633898973465,0.16542816162109375,0,0,0
286575954,d4:22:cd:00:30:92,0.5950829386711121,-0.33065861463546753,-0.30459365248680115,-0.6661561131477356,-0.08130183070898056,-0.12003383040428162,0.12875747680664062,0,0,0
286592621,d4:22:cd:00:30:92,0.593776285648346,-0.33404311537742615,-0.306596964597702,-0.6647129654884338,-0.11770091950893402,-0.18666930496692657,0.10045146942138672,0,0,0
286609288,d4:22:cd:00:30:92,0.5926945805549622,-0.3371363580226898,-0.30901533365249634,-0.6629946827888489,-0.019228707998991013,-0.08369487524032593,0.16054534912109375,0,0,0
286625955,d4:22:cd:00:30:92,0.5913960933685303,-0.3404773473739624,-0.31161195039749146,-0.6612291932106018,-0.0483018197119236,0.128073588013649,0.17244911193847656,0,0,0
286642622,d4:22:cd:00:30:92,0.589421272277832,-0.34491342306137085,-0.3148103952407837,-0.6591750979423523,0.01318435836583376,0.07005007565021515,0.23583126068115234,0,0,0
286659289,d4:22:cd:00:30:92,0.5873779058456421,-0.3496999144554138,-0.3184022605419159,-0.656747579574585,-0.01116726640611887,0.015587123110890388,0.1329641342163086,0,0,0
286675956,d4:22:cd:00:30:92,0.5857490301132202,-0.3540272116661072,-0.32185792922973633,-0.6541944742202759,-0.01574760489165783,-0.0757344588637352,0.11658287048339844,0,0,0
286692623,d4:22:cd:00:30:92,0.5846602320671082,-0.3576563596725464,-0.3249744176864624,-0.651648759841919,-0.058154717087745667,-0.1887638419866562,0.11304378509521484,0,0,0
286709290,d4:22:cd:00:30:92,0.5837516784667969,-0.36095231771469116,-0.3278827667236328,-0.6491844654083252,-0.06732992827892303,-0.16213317215442657,0.1371002197265625,0,0,0
286725957,d4:22:cd:00:30:92,0.5830031037330627,-0.36409908533096313,-0.3307952880859375,-0.6466172933578491,-0.019943613559007645,-0.017735306173563004,0.14087772369384766,0,0,0
286742624,d4:22:cd:00:30:92,0.5816443562507629,-0.36777251958847046,-0.33348968625068665,-0.6443740725517273,-0.03311992809176445,0.07621501386165619,0.16961383819580078,0,0,0
286759291,d4:22:cd:00:30:92,0.5798696279525757,-0.3717954754829407,-0.336130291223526,-0.6422895789146423,-0.028401121497154236,-0.014362048357725143,0.14846515655517578,0,0,0
286775958,d4:22:cd:00:30:92,0.5780694484710693,-0.3759298026561737,-0.3389391303062439,-0.6400257349014282,-0.01137278601527214,0.013034381903707981,0.14234352111816406,0,0,0
286792625,d4:22:cd:00:30:92,0.5762157440185547,-0.38002127408981323,-0.34164509177207947,-0.6378386616706848,-0.04221578687429428,-0.08806589245796204,0.14802074432373047,0,0,0
286809292,d4:22:cd:00:30:92,0.574006974697113,-0.3840962052345276,-0.3438411355018616,-0.6362072825431824,-0.05504699423909187,-0.10337988287210464,0.13875865936279297,0,0,0
286825959,d4:22:cd:00:30:92,0.5714280009269714,-0.3882097899913788,-0.3455687463283539,-0.635094940662384,-0.0695100724697113,-0.10338770598173141,0.13041400909423828,0,0,0
286842626,d4:22:cd:00:30:92,0.5687663555145264,-0.39223626255989075,-0.3470267951488495,-0.6342146992683411,-0.036618128418922424,-0.10393977910280228,0.1461172103881836,0,0,0
286859293,d4:22:cd:00:30:92,0.5661328434944153,-0.39591217041015625,-0.3483046591281891,-0.633586049079895,-0.0930236354470253,-0.12983621656894684,0.13610172271728516,0,0,0
286875960,d4:22:cd:00:30:92,0.5631898641586304,-0.39922526478767395,-0.3496755361557007,-0.6333747506141663,-0.09388817846775055,0.07332253456115723,0.1736164093017578,0,0,0
286892627,d4:22:cd:00:30:92,0.5578839778900146,-0.40491291880607605,-0.351725697517395,-0.6333248019218445,-0.04770481586456299,0.2027394324541092,0.2595701217651367,0,0,0
286909294,d4:22:cd:00:30:92,0.5519930124282837,-0.41177690029144287,-0.3550298511981964,-0.632216215133667,-0.09989821910858154,0.03829246386885643,0.17437076568603516,0,0,0
286925961,d4:22:cd:00:30:92,0.5467689633369446,-0.4179723262786865,-0.35843199491500854,-0.6307689547538757,0.03561924770474434,-0.22909429669380188,0.09099769592285156,0,0,0
286942628,d4:22:cd:00:30:92,0.5426281094551086,-0.4218958616256714,-0.362033873796463,-0.6296746134757996,-0.1334586888551712,-0.1837649792432785,0.11248493194580078,0,0,0
286959295,d4:22:cd:00:30:92,0.5390036106109619,-0.42955145239830017,-0.3687743842601776,-0.6236715316772461,0.4814189672470093,0.4557277262210846,0.3902463912963867,0,0,0
286975962,d4:22:cd:00:30:92,0.5347005724906921,-0.43764403462409973,-0.3788655400276184,-0.6156493425369263,-0.2712177634239197,-0.11106336116790771,0.08051872253417969,0,0,0
286992629,d4:22:cd:00:30:92,0.5313652753829956,-0.4443598687648773,-0.3872702419757843,-0.608454704284668,0.04401975870132446,-0.3328990638256073,0.13106155395507812,0,0,0
287009296,d4:22:cd:00:30:92,0.528489351272583,-0.4487402141094208,-0.3926692306995392,-0.6042701005935669,-0.1934710294008255,-0.34404879808425903,0.06460762023925781,0,0,0
287025963,d4:22:cd:00:30:92,0.5263383984565735,-0.4521541893482208,-0.39711666107177734,-0.6006852984428406,0.012676090002059937,-0.0989874079823494,0.1376171112060547,0,0,0
287042630,d4:22:cd:00:30:92,0.524463415145874,-0.4551476240158081,-0.4009077548980713,-0.5975380539894104,-0.06643788516521454,-0.16513092815876007,0.14552593231201172,0,0,0
287059297,d4:22:cd:00:30:92,0.5234243273735046,-0.4577329754829407,-0.40465185046195984,-0.5939397215843201,-0.07803016155958176,-0.1520131677389145,0.13407325744628906,0,0,0
287075964,d4:22:cd:00:30:92,0.5236901044845581,-0.45763224363327026,-0.41082218289375305,-0.5895308256149292,-0.0714968740940094,-0.11547238379716873,0.14218807220458984,0,0,0
287092631,d4:22:cd:00:30:92,0.5247511863708496,-0.4566658139228821,-0.4154996871948242,-0.5860483050346375,0.03540489822626114,-0.37979835271835327,0.15697097778320312,0,0,0
287109298,d4:22:cd:00:30:92,0.5249928832054138,-0.4560725688934326,-0.419292151927948,-0.5835877060890198,-0.06934109330177307,-0.10573325306177139,0.14503002166748047,0,0,0
287125965,d4:22:cd:00:30:92,0.5249736309051514,-0.45598673820495605,-0.4195762872695923,-0.5834677815437317,0.05021464452147484,-0.27081412076950073,0.1597433090209961,0,0,0
287142632,d4:22:cd:00:30:92,0.5258490443229675,-0.45539379119873047,-0.4195106625556946,-0.5831897258758545,-0.0029190792702138424,0.13713592290878296,0.1682443618774414,0,0,0
287159299,d4:22:cd:00:30:92,0.5272867679595947,-0.45437896251678467,-0.41995126008987427,-0.5823654532432556,-0.01812734827399254,-0.0807858556509018,0.15421581268310547,0,0,0
287175966,d4:22:cd:00:30:92,0.5277002453804016,-0.45393630862236023,-0.4207800328731537,-0.5817375183105469,-0.026248915120959282,0.015548008494079113,0.16732406616210938,0,0,0
287192633,d4:22:cd:00:30:92,0.5275188684463501,-0.4540538191795349,-0.42082679271698,-0.5817764401435852,-0.050764262676239014,-0.184330016374588,0.16405868530273438,0,0,0
287209300,d4:22:cd:00:30:92,0.527366042137146,-0.45410609245300293,-0.4214009642601013,-0.581458568572998,-0.04199540242552757,-0.22304290533065796,0.16594219207763672,0,0,0
287225967,d4:22:cd:00:30:92,0.5272374153137207,-0.4542212188243866,-0.4216689169406891,-0.5812908411026001,-0.041005685925483704,-0.07133997231721878,0.17801475524902344,0,0,0
287242634,d4:22:cd:00:30:92,0.5269590020179749,-0.45436352491378784,-0.42250674962997437,-0.5808236002922058,-0.02077597565948963,0.003964896313846111,0.17299365997314453,0,0,0
287259301,d4:22:cd:00:30:92,0.5267006158828735,-0.4543735384941101,-0.424174040555954,-0.5798339247703552,-0.021596716716885567,0.02184012159705162,0.17958545684814453,0,0,0
287275968,d4:22:cd:00:30:92,0.5258326530456543,-0.4555789530277252,-0.4254928231239319,-0.5787086486816406,-0.0017134502995759249,0.04708211123943329,0.21954631805419922,0,0,0
287292635,d4:22:cd:00:30:92,0.5243896842002869,-0.4575504958629608,-0.4265967309474945,-0.5776488780975342,-0.09651803225278854,0.0005239143501967192,0.1513357162475586,0,0,0
287309302,d4:22:cd:00:30:92,0.5223698019981384,-0.4596124291419983,-0.42815670371055603,-0.5766870379447937,-0.10930833965539932,0.013912787660956383,0.13634872436523438,0,0,0
287325969,d4:22:cd:00:30:92,0.520422637462616,-0.4611535966396332,-0.4306132197380066,-0.575386643409729,-0.05902373790740967,-0.07056214660406113,0.16263580322265625,0,0,0
287342636,d4:22:cd:00:30:92,0.5178155899047852,-0.46371591091156006,-0.4319899380207062,-0.5746471285820007,0.0046490696258842945,-0.03100057691335678,0.18797683715820312,0,0,0
287359303,d4:22:cd:00:30:92,0.515203595161438,-0.466169536113739,-0.43330127000808716,-0.574022114276886,-0.050461627542972565,-0.15348410606384277,0.13673877716064453,0,0,0
287375970,d4:22:cd:00:30:92,0.5131239891052246,-0.46807485818862915,-0.43485137820243835,-0.5731616020202637,0.002245634561404586,-0.16492395102977753,0.14980411529541016,0,0,0
287392637,d4:22:cd:00:30:92,0.5113661289215088,-0.4696795642375946,-0.43712711334228516,-0.5716869235038757,-0.060242775827646255,-0.015699103474617004,0.15413856506347656,0,0,0
287409304,d4:22:cd:00:30:92,0.5091116428375244,-0.4719628691673279,-0.43890973925590515,-0.5704512596130371,0.007042222656309605,-0.02010945975780487,0.19657230377197266,0,0,0
287425971,d4:22:cd:00:30:92,0.505966067314148,-0.4750661849975586,-0.44036075472831726,-0.5695550441741943,-0.003875044174492359,-0.10753901302814484,0.14743614196777344,0,0,0
287442638,d4:22:cd:00:30:92,0.502517819404602,-0.47843340039253235,-0.44208604097366333,-0.5684517025947571,-0.015375232324004173,-0.0919550210237503,0.166839599609375,0,0,0
287459305,d4:22:cd:00:30:92,0.49973711371421814,-0.48148784041404724,-0.44395381212234497,-0.5668662786483765,-0.0225216131657362,-0.08627890795469284,0.1441669464111328,0,0,0
287475972,d4:22:cd:00:30:92,0.4976220428943634,-0.48390522599220276,-0.44515126943588257,-0.5657283663749695,-0.07363187521696091,-0.2353714406490326,0.13483619689941406,0,0,0
287492639,d4:22:cd:00:30:92,0.49555373191833496,-0.4862078130245209,-0.4457067847251892,-0.5651320219039917,-0.06827627867460251,-0.1457250863313675,0.143768310546875,0,0,0
287509306,d4:22:cd:00:30:92,0.49389877915382385,-0.48799043893814087,-0.44672873616218567,-0.5642366409301758,-0.013642113655805588,-0.20491845905780792,0.15480327606201172,0,0,0
287525973,d4:22:cd:00:30:92,0.493163138628006,-0.4894663989543915,-0.4477479159832001,-0.5627919435501099,0.05761471018195152,-0.15323244035243988,0.18142318725585938,0,0,0
287542640,d4:22:cd:00:30:92,0.49229496717453003,-0.4915773272514343,-0.4482654631137848,-0.561298131942749,0.017515145242214203,-0.02586827240884304,0.15914535522460938,0,0,0
287559307,d4:22:cd:00:30:92,0.490573525428772,-0.4945015609264374,-0.4479679763317108,-0.5604735612869263,-0.10199768096208572,-0.09229565411806107,0.12929916381835938,0,0,0
287575974,d4:22:cd:00:30:92,0.4886469542980194,-0.49681583046913147,-0.4481274485588074,-0.559982180595398,-0.1435670703649521,-0.15055832266807556,0.10134601593017578,0,0,0
287592641,d4:22:cd:00:30:92,0.48545733094215393,-0.4999302923679352,-0.448050320148468,-0.5600464344024658,-0.009556296281516552,-0.04907293990254402,0.15820789337158203,0,0,0
287609308,d4:22:cd:00:30:92,0.4822758138179779,-0.5031124353408813,-0.44806188344955444,-0.5599362850189209,-0.043537866324186325,-0.17833271622657776,0.12711334228515625,0,0,0
287625975,d4:22:cd:00:30:92,0.4794720709323883,-0.5059717893600464,-0.44824349880218506,-0.5596223473548889,-0.005894483532756567,0.014929771423339844,0.14331340789794922,0,0,0
287642642,d4:22:cd:00:30:92,0.4758720397949219,-0.5093586444854736,-0.4501132071018219,-0.5581198334693909,-0.03313445299863815,0.20375441014766693,0.14736652374267578,0,0,0
287659309,d4:22:cd:00:30:92,0.4721078872680664,-0.5130516886711121,-0.4512462019920349,-0.5570178627967834,-0.05634023994207382,-0.17951978743076324,0.13227558135986328,0,0,0
287675976,d4:22:cd:00:30:92,0.4686499238014221,-0.5165004730224609,-0.452022522687912,-0.5561208128929138,-0.014548905193805695,-0.27075645327568054,0.1595745086669922,0,0,0
287692643,d4:22:cd:00:30:92,0.46652886271476746,-0.518796443939209,-0.4526574909687042,-0.5552497506141663,-0.054044537246227264,-0.29615890979766846,0.13488197326660156,0,0,0
287709310,d4:22:cd:00:30:92,0.4655218720436096,-0.5200411081314087,-0.4538002908229828,-0.5539963245391846,-0.05957447364926338,-0.09912240505218506,0.1313190460205078,0,0,0
287725977,d4:22:cd:00:30:92,0.46450093388557434,-0.5211740732192993,-0.4549047350883484,-0.55288165807724,-0.021690815687179565,-0.16124291718006134,0.16170120239257812,0,0,0
287742644,d4:22:cd:00:30:92,0.46399545669555664,-0.5219897031784058,-0.45557546615600586,-0.5519838333129883,-0.0022007084917277098,-0.17980477213859558,0.16172027587890625,0,0,0
287759311,d4:22:cd:00:30:92,0.4638811945915222,-0.5226739048957825,-0.45572274923324585,-0.5513104796409607,-0.013235766440629959,-0.14086054265499115,0.1445026397705078,0,0,0
287775978,d4:22:cd:00:30:92,0.4641092121601105,-0.5229852795600891,-0.4559698700904846,-0.5506183505058289,-0.05285276845097542,-0.09058711677789688,0.14815330505371094,0,0,0
287792645,d4:22:cd:00:30:92,0.4638989269733429,-0.5236052870750427,-0.4562200903892517,-0.5499987006187439,-0.029611891135573387,0.048642005771398544,0.15633773803710938,0,0,0
287809312,d4:22:cd:00:30:92,0.4633316695690155,-0.5244948267936707,-0.4566652774810791,-0.5492594242095947,-0.02332223579287529,-0.013507110998034477,0.13031959533691406,0,0,0
287825979,d4:22:cd:00:30:92,0.4627940356731415,-0.5254007577896118,-0.4570154845714569,-0.5485550165176392,-0.02026323787868023,-0.15423421561717987,0.15485286712646484,0,0,0
287842646,d4:22:cd:00:30:92,0.4620969295501709,-0.5266274213790894,-0.4567074477672577,-0.5482228994369507,0.05287109687924385,0.054996926337480545,0.14548587799072266,0,0,0
287859313,d4:22:cd:00:30:92,0.46074461936950684,-0.528591513633728,-0.45586535334587097,-0.5481717586517334,-0.03135864436626434,-0.020303916186094284,0.1453714370727539,0,0,0
287875980,d4:22:cd:00:30:92,0.45911720395088196,-0.5307688117027283,-0.4552157521247864,-0.5479732155799866,-0.03153499588370323,-0.008812221698462963,0.14032649993896484,0,0,0
287892647,d4:22:cd:00:30:92,0.4575576186180115,-0.5326128005981445,-0.4552081525325775,-0.5474945902824402,-0.09778602421283722,-0.06884735822677612,0.1163187026977539,0,0,0
287909314,d4:22:cd:00:30:92,0.45590105652809143,-0.5344524383544922,-0.4553132951259613,-0.5469961762428284,0.003259936347603798,-0.08348588645458221,0.15453529357910156,0,0,0
287925981,d4:22:cd:00:30:92,0.4547535479068756,-0.5357694029808044,-0.4555632472038269,-0.5464546084403992,-0.02299344912171364,-0.1284710019826889,0.14424896240234375,0,0,0
287942648,d4:22:cd:00:30:92,0.4542677402496338,-0.536420464515686,-0.4558524787425995,-0.5459786057472229,-0.03309042379260063,-0.16271720826625824,0.14180564880371094,0,0,0
287959315,d4:22:cd:00:30:92,0.4544442892074585,-0.5364186763763428,-0.4562065899372101,-0.545537531375885,-0.009062780067324638,-0.08909986168146133,0.1511363983154297,0,0,0
287975982,d4:22:cd:00:30:92,0.45460671186447144,-0.5363975763320923,-0.4565503001213074,-0.5451352000236511,-0.0038354822900146246,-0.017203345894813538,0.1450510025024414,0,0,0
287992649,d4:22:cd:00:30:92,0.45449337363243103,-0.5367931127548218,-0.4565582573413849,-0.5448334813117981,0.03255712240934372,-0.011610603891313076,0.14774608612060547,0,0,0
288009316,d4:22:cd:00:30:92,0.4541555941104889,-0.5374249815940857,-0.4563656449317932,-0.5446537137031555,-0.004792788531631231,-0.0279091689735651,0.1264934539794922,0,0,0
288025983,d4:22:cd:00:30:92,0.45374393463134766,-0.5381324291229248,-0.4561392366886139,-0.5444880127906799,-0.02339465357363224,-0.027743322774767876,0.1351032257080078,0,0,0
288042650,d4:22:cd:00:30:92,0.4533764719963074,-0.5386960506439209,-0.4560469686985016,-0.5443138480186462,-0.02841050736606121,-0.056212168186903,0.13126277923583984,0,0,0
288059317,d4:22:cd:00:30:92,0.4530666172504425,-0.5390283465385437,-0.4562031626701355,-0.5441121459007263,-0.040404658764600754,-0.0184883214533329,0.13558578491210938,0,0,0
288075984,d4:22:cd:00:30:92,0.4527396559715271,-0.5393472909927368,-0.45647403597831726,-0.5438408851623535,-0.007601452060043812,-0.041604701429605484,0.1465587615966797,0,0,0
288092651,d4:22:cd:00:30:92,0.452424019575119,-0.5396512150764465,-0.45655468106269836,-0.5437343716621399,-0.0028513548895716667,-0.030739737674593925,0.15077877044677734,0,0,0
288109318,d4:22:cd:00:30:92,0.45196664333343506,-0.5401216745376587,-0.4565540552139282,-0.5436480641365051,-0.012557405047118664,0.011096971109509468,0.13969802856445312,0,0,0
288125985,d4:22:cd:00:30:92,0.45151105523109436,-0.5404955148696899,-0.4564710557460785,-0.5437248945236206,-0.04338743910193443,-0.09111662209033966,0.1330394744873047,0,0,0
288142652,d4:22:cd:00:30:92,0.45129773020744324,-0.5405772924423218,-0.456524521112442,-0.5437758564949036,-0.006070388481020927,-0.03239484876394272,0.13866233825683594,0,0,0
288159319,d4:22:cd:00:30:92,0.4510122239589691,-0.5406385660171509,-0.4565502107143402,-0.5439301133155823,-0.0357658714056015,-0.000040232331230072305,0.1254434585571289,0,0,0
288175986,d4:22:cd:00:30:92,0.45067548751831055,-0.5407368540763855,-0.4566783607006073,-0.5440041422843933,0.009559872560203075,0.015818681567907333,0.15066814422607422,0,0,0
288192653,d4:22:cd:00:30:92,0.45035168528556824,-0.5409382581710815,-0.4568065404891968,-0.5439642071723938,0.005037534981966019,-0.055193617939949036,0.16395187377929688,0,0,0
288209320,d4:22:cd:00:30:92,0.450344979763031,-0.5408891439437866,-0.4570761024951935,-0.543792188167572,-0.023693714290857315,-0.06067773327231407,0.1392993927001953,0,0,0
288225987,d4:22:cd:00:30:92,0.45046061277389526,-0.5407527685165405,-0.4572151005268097,-0.5437150597572327,0.006373919080942869,-0.0366087406873703,0.15215015411376953,0,0,0
288242654,d4:22:cd:00:30:92,0.45042747259140015,-0.5408265590667725,-0.45734745264053345,-0.54355788230896,0.01187099702656269,0.015954578295350075,0.145751953125,0,0,0
288259321,d4:22:cd:00:30:92,0.45038872957229614,-0.5409291982650757,-0.4575485289096832,-0.5433187484741211,-0.0154592739418149,-0.03171447664499283,0.1468362808227539,0,0,0
288275988,d4:22:cd:00:30:92,0.45047715306282043,-0.5409256219863892,-0.4577177166938782,-0.5431063771247864,-0.019039951264858246,-0.06252305209636688,0.13645458221435547,0,0,0
288292655,d4:22:cd:00:30:92,0.4506991505622864,-0.5407087206840515,-0.4578492045402527,-0.5430272221565247,-0.02656250260770321,-0.044043898582458496,0.12851524353027344,0,0,0
288309322,d4:22:cd:00:30:92,0.45090463757514954,-0.540488064289093,-0.4579811990261078,-0.5429651141166687,-0.0039052183274179697,0.007020988967269659,0.12775516510009766,0,0,0
288325989,d4:22:cd:00:30:92,0.451164573431015,-0.5403318405151367,-0.45852625370025635,-0.5424441695213318,0.007220138795673847,0.013097858987748623,0.15373516082763672,0,0,0
288342656,d4:22:cd:00:30:92,0.45122185349464417,-0.5404167771339417,-0.45902296900749207,-0.5418915748596191,0.02084057219326496,0.011593169532716274,0.15488243103027344,0,0,0
288359323,d4:22:cd:00:30:92,0.45095840096473694,-0.5408604145050049,-0.45915234088897705,-0.5415584444999695,0.012222805991768837,0.005869003012776375,0.15062808990478516,0,0,0
288375990,d4:22:cd:00:30:92,0.4505194425582886,-0.5414904952049255,-0.45913946628570557,-0.541305422782898,-0.004410357680171728,-0.011882842518389225,0.14636611938476562,0,0,0
288392657,d4:22:cd:00:30:92,0.4501493573188782,-0.5419961810112,-0.4592627286911011,-0.5410024523735046,-0.0323914960026741,-0.05122581496834755,0.12694835662841797,0,0,0
288409324,d4:22:cd:00:30:92,0.45000728964805603,-0.5421973466873169,-0.459501177072525,-0.5407163500785828,-0.016227710992097855,-0.04791223630309105,0.14396286010742188,0,0,0
288425991,d4:22:cd:00:30:92,0.44982266426086426,-0.5423556566238403,-0.45961135625839233,-0.5406177043914795,-0.004779824521392584,-0.012630046345293522,0.12288093566894531,0,0,0
288442658,d4:22:cd:00:30:92,0.44945237040519714,-0.5426310300827026,-0.4594723880290985,-0.5407674908638,-0.00909340102225542,-0.028145868331193924,0.13283634185791016,0,0,0
288459325,d4:22:cd:00:30:92,0.4488457441329956,-0.5429942607879639,-0.4592392146587372,-0.541104793548584,-0.024796750396490097,-0.028867369517683983,0.1503591537475586,0,0,0
288475992,d4:22:cd:00:30:92,0.44861888885498047,-0.5430567264556885,-0.45922839641571045,-0.5412392020225525,-0.01480527501553297,-0.01131266076117754,0.1370868682861328,0,0,0
288492659,d4:22:cd:00:30:92,0.44840988516807556,-0.5430824160575867,-0.45934608578681946,-0.5412867069244385,-0.020472446456551552,-0.022640520706772804,0.12235164642333984,0,0,0
288509326,d4:22:cd:00:30:92,0.448280930519104,-0.5429472327232361,-0.45962855219841003,-0.5412895083427429,-0.018538611009716988,-0.05105840414762497,0.14058303833007812,0,0,0
288525993,d4:22:cd:00:30:92,0.44824644923210144,-0.5428232550621033,-0.45969629287719727,-0.5413848757743835,0.036571189761161804,-0.005392697174102068,0.15261459350585938,0,0,0
288542660,d4:22:cd:00:30:92,0.44813570380210876,-0.5429828763008118,-0.4596409797668457,-0.5413631796836853,0.021898457780480385,0.016679653897881508,0.15430068969726562,0,0,0
288559327,d4:22:cd:00:30:92,0.4481399357318878,-0.5431618690490723,-0.4595702588558197,-0.5412402153015137,0.00447651743888855,-0.04196075722575188,0.1571178436279297,0,0,0
288575994,d4:22:cd:00:30:92,0.44823867082595825,-0.5432361960411072,-0.4593599736690521,-0.5412625074386597,-0.004320282023400068,-0.024443376809358597,0.1497964859008789,0,0,0
288592661,d4:22:cd:00:30:92,0.4482046067714691,-0.5434472560882568,-0.4589892029762268,-0.5413934588432312,-0.0039733899757266045,0.014467770233750343,0.1379861831665039,0,0,0
288609328,d4:22:cd:00:30:92,0.44816839694976807,-0.5436003804206848,-0.45891594886779785,-0.5413315892219543,-0.034501682966947556,0.001261507160961628,0.13540935516357422,0,0,0
288625995,d4:22:cd:00:30:92,0.44811108708381653,-0.5437820553779602,-0.4590291678905487,-0.541100800037384,-0.015452791936695576,-0.0032836287282407284,0.1455678939819336,0,0,0
288642662,d4:22:cd:00:30:92,0.4479975700378418,-0.5439398288726807,-0.45932772755622864,-0.540782630443573,-0.014184802770614624,0.003383986186236143,0.13861083984375,0,0,0
288659329,d4:22:cd:00:30:92,0.4479145109653473,-0.5440436601638794,-0.45972251892089844,-0.5404113531112671,0.005378392059355974,-0.04028373956680298,0.14629840850830078,0,0,0
288675996,d4:22:cd:00:30:92,0.4477790892124176,-0.5442227721214294,-0.459841251373291,-0.5402421951293945,0.0026776851154863834,-0.018069680780172348,0.1460409164428711,0,0,0
288692663,d4:22:cd:00:30:92,0.4477326273918152,-0.5443403124809265,-0.4598327875137329,-0.5401694774627686,-0.008480304852128029,-0.05155818164348602,0.1408548355102539,0,0,0
288709330,d4:22:cd:00:30:92,0.44768741726875305,-0.5444337725639343,-0.4597425162792206,-0.5401895642280579,-0.003359176218509674,-0.005397167522460222,0.1363983154296875,0,0,0
288725997,d4:22:cd:00:30:92,0.44753628969192505,-0.5446636080741882,-0.45959851145744324,-0.5402057766914368,0.007296580355614424,-0.0018989660311490297,0.14492034912109375,0,0,0
288742664,d4:22:cd:00:30:92,0.44728535413742065,-0.5449647903442383,-0.4592956006526947,-0.5403672456741333,-0.01581108383834362,-0.02031419798731804,0.1433887481689453,0,0,0
288759331,d4:22:cd:00:30:92,0.4472193121910095,-0.5450060963630676,-0.459062397480011,-0.5405785441398621,-0.01816042698919773,-0.06234290450811386,0.13880157470703125,0,0,0
288775998,d4:22:cd:00:30:92,0.44724851846694946,-0.5449502468109131,-0.4587409496307373,-0.5408835411071777,-0.006556976120918989,-0.013131833635270596,0.14776229858398438,0,0,0
288792665,d4:22:cd:00:30:92,0.4470924139022827,-0.5450983643531799,-0.45841747522354126,-0.5411373376846313,0.0070167421363294125,0.03412528708577156,0.1354665756225586,0,0,0
288809332,d4:22:cd:00:30:92,0.4470161497592926,-0.545260488986969,-0.4584137499332428,-0.5410401821136475,-0.004440085031092167,-0.08362625539302826,0.1448974609375,0,0,0
288825999,d4:22:cd:00:30:92,0.4470445513725281,-0.5453612804412842,-0.4581720232963562,-0.5411198735237122,0.0057165673933923244,-0.058538712561130524,0.14815902709960938,0,0,0
288842666,d4:22:cd:00:30:92,0.44722238183021545,-0.5452889204025269,-0.4577693045139313,-0.5413867235183716,-0.025182310491800308,0.02152496762573719,0.13357925415039062,0,0,0
288859333,d4:22:cd:00:30:92,0.44734299182891846,-0.5451546907424927,-0.45748040080070496,-0.5416663885116577,-0.0333850122988224,-0.049399714916944504,0.12199783325195312,0,0,0
288876000,d4:22:cd:00:30:92,0.4474627673625946,-0.5448859333992004,-0.4573579430580139,-0.5419410467147827,-0.0036944455932825804,-0.021313078701496124,0.13944053649902344,0,0,0
288892667,d4:22:cd:00:30:92,0.44769737124443054,-0.5446405410766602,-0.4573458731174469,-0.5420042872428894,0.011973141692578793,0.030968613922595978,0.13404560089111328,0,0,0
288909334,d4:22:cd:00:30:92,0.4476683437824249,-0.5446856617927551,-0.45733124017715454,-0.5419953465461731,-0.0047979289665818214,0.00900332536548376,0.1443958282470703,0,0,0
288926001,d4:22:cd:00:30:92,0.4477677345275879,-0.5445781946182251,-0.45745161175727844,-0.541919469833374,-0.012060311622917652,-0.003154438454657793,0.14601707458496094,0,0,0
288942668,d4:22:cd:00:30:92,0.44773563742637634,-0.5446422100067139,-0.45748239755630493,-0.5418557524681091,0.027527185156941414,-0.014089586213231087,0.13562393188476562,0,0,0
288959335,d4:22:cd:00:30:92,0.447756290435791,-0.5447665452957153,-0.4574194848537445,-0.5417667627334595,0.018915900960564613,-0.0186273455619812,0.14370155334472656,0,0,0
288976002,d4:22:cd:00:30:92,0.44764965772628784,-0.5450518131256104,-0.4572497308254242,-0.5417113304138184,0.0050384290516376495,-0.000240946959820576,0.14290237426757812,0,0,0
288992669,d4:22:cd:00:30:92,0.4474621117115021,-0.5453680753707886,-0.45680391788482666,-0.5419240593910217,-0.021235071122646332,-0.0518355593085289,0.14377689361572266,0,0,0
289009336,d4:22:cd:00:30:92,0.44705528020858765,-0.545801043510437,-0.4559643566608429,-0.54253089427948,0.04302646592259407,0.09339913725852966,0.13840007781982422,0,0,0
289026003,d4:22:cd:00:30:92,0.4466739892959595,-0.546314001083374,-0.45504263043403625,-0.5431016087532043,-0.03066977672278881,-0.11964491754770279,0.1376180648803711,0,0,0
289042670,d4:22:cd:00:30:92,0.4464356005191803,-0.5466829538345337,-0.45424753427505493,-0.5435918569564819,0.0013375015696510673,-0.03882375359535217,0.14655590057373047,0,0,0
289059337,d4:22:cd:00:30:92,0.4458691477775574,-0.5473730564117432,-0.45299917459487915,-0.5444036722183228,0.016004420816898346,0.01990293525159359,0.13732051849365234,0,0,0
289076004,d4:22:cd:00:30:92,0.4456234872341156,-0.5477850437164307,-0.4519954025745392,-0.5450244545936584,-0.04358480125665665,-0.052707262337207794,0.13329601287841797,0,0,0
289092671,d4:22:cd:00:30:92,0.4453384578227997,-0.5481236577033997,-0.4513785243034363,-0.5454279184341431,0.0010516284964978695,0.02582625113427639,0.14148235321044922,0,0,0
289109338,d4:22:cd:00:30:92,0.44527533650398254,-0.5481165647506714,-0.4514743387699127,-0.545407235622406,-0.06004943698644638,-0.05160735175013542,0.1342144012451172,0,0,0
289126005,d4:22:cd:00:30:92,0.4453524351119995,-0.5478540062904358,-0.4518915116786957,-0.5452626943588257,0.014946535229682922,-0.06924386322498322,0.1546030044555664,0,0,0
289142672,d4:22:cd:00:30:92,0.4455508291721344,-0.5474822521209717,-0.4523717761039734,-0.5450757741928101,-0.02769012562930584,-0.021811287850141525,0.14337921142578125,0,0,0
289159339,d4:22:cd:00:30:92,0.445943146944046,-0.5470911264419556,-0.452786922454834,-0.5448029041290283,0.031552430242300034,-0.055191829800605774,0.14283466339111328,0,0,0
289176006,d4:22:cd:00:30:92,0.4464661777019501,-0.5467042922973633,-0.45304903388023376,-0.5445447564125061,0.006451701279729605,-0.02204955369234085,0.14733409881591797,0,0,0
289192673,d4:22:cd:00:30:92,0.44687217473983765,-0.5464492440223694,-0.4532497227191925,-0.5443008542060852,0.01206344086676836,0.0031200172379612923,0.1445140838623047,0,0,0
289209340,d4:22:cd:00:30:92,0.44734323024749756,-0.5461353659629822,-0.4534552991390228,-0.5440576076507568,-0.02504216879606247,-0.02622276358306408,0.13884258270263672,0,0,0
289226007,d4:22:cd:00:30:92,0.44782453775405884,-0.5458139777183533,-0.45393607020378113,-0.5435831546783447,0.01717473566532135,-0.010716104879975319,0.1590557098388672,0,0,0
289242674,d4:22:cd:00:30:92,0.44839587807655334,-0.5455377697944641,-0.4540446102619171,-0.543298602104187,0.0008866759017109871,-0.03551419824361801,0.1470794677734375,0,0,0
289259341,d4:22:cd:00:30:92,0.448768675327301,-0.5453938245773315,-0.45393967628479004,-0.5432227253913879,-0.015325388871133327,-0.012643457390367985,0.1431722640991211,0,0,0
289276008,d4:22:cd:00:30:92,0.44912442564964294,-0.5451449155807495,-0.4540976583957672,-0.543046772480011,-0.04337693750858307,-0.03029695712029934,0.13494205474853516,0,0,0
289292675,d4:22:cd:00:30:92,0.44926702976226807,-0.5449667572975159,-0.45407605171203613,-0.5431257486343384,0.009037522599101067,0.022964168339967728,0.14080429077148438,0,0,0
289309342,d4:22:cd:00:30:92,0.449153870344162,-0.5450606942176819,-0.4541347920894623,-0.543075680732727,0.013590258546173573,0.019192609935998917,0.1548004150390625,0,0,0
289326009,d4:22:cd:00:30:92,0.44918444752693176,-0.5450949668884277,-0.4541470408439636,-0.5430058240890503,-0.014252303168177605,-0.06701521575450897,0.1300058364868164,0,0,0
289342676,d4:22:cd:00:30:92,0.44933775067329407,-0.5449848771095276,-0.4540223181247711,-0.5430938005447388,-0.018254078924655914,-0.041366659104824066,0.14385318756103516,0,0,0
289359343,d4:22:cd:00:30:92,0.4493950307369232,-0.54490065574646,-0.4536454975605011,-0.5434457659721375,-0.003168966621160507,-0.050066232681274414,0.1381082534790039,0,0,0
289376010,d4:22:cd:00:30:92,0.44952666759490967,-0.5446717739105225,-0.45308321714401245,-0.5440351366996765,-0.013217215426266193,-0.049111608415842056,0.1335916519165039,0,0,0
289392677,d4:22:cd:00:30:92,0.44992199540138245,-0.5442798733711243,-0.45303767919540405,-0.5441386103630066,0.018351083621382713,0.01413674745708704,0.14582061767578125,0,0,0
289409344,d4:22:cd:00:30:92,0.4503512382507324,-0.5440055727958679,-0.4532163441181183,-0.543908953666687,0.010091163218021393,-0.004085369873791933,0.14703845977783203,0,0,0
289426011,d4:22:cd:00:30:92,0.4506566524505615,-0.5437943935394287,-0.4533177614212036,-0.5437824130058289,-0.006705835927277803,-0.014883727766573429,0.14714622497558594,0,0,0
289442678,d4:22:cd:00:30:92,0.4508867859840393,-0.5436261296272278,-0.4531481862068176,-0.5439011454582214,-0.003204505192115903,-0.04232865944504738,0.14247989654541016,0,0,0
289459345,d4:22:cd:00:30:92,0.4511341452598572,-0.5434235334396362,-0.4530189037322998,-0.5440060496330261,-0.010389999486505985,-0.011567465960979462,0.13793659210205078,0,0,0
289476012,d4:22:cd:00:30:92,0.4512123167514801,-0.5433117747306824,-0.452985018491745,-0.5440813302993774,-0.010583114810287952,-0.017372097820043564,0.14398765563964844,0,0,0
289492679,d4:22:cd:00:30:92,0.45126521587371826,-0.543157160282135,-0.45280590653419495,-0.5443407893180847,-0.013042651116847992,-0.03099387139081955,0.13327407836914062,0,0,0
289509346,d4:22:cd:00:30:92,0.4513843357563019,-0.5429971814155579,-0.4526081383228302,-0.5445659756660461,0.015728382393717766,-0.011810648255050182,0.14357852935791016,0,0,0
289526013,d4:22:cd:00:30:92,0.45137977600097656,-0.5430520176887512,-0.4523725211620331,-0.5447109341621399,0.021583082154393196,0.0015234643360599875,0.16061878204345703,0,0,0
289542680,d4:22:cd:00:30:92,0.4512672424316406,-0.5432623624801636,-0.4523482620716095,-0.5446145534515381,-0.0070601035840809345,-0.0019546207040548325,0.1481914520263672,0,0,0
289559347,d4:22:cd:00:30:92,0.4511844515800476,-0.5434290170669556,-0.4525928795337677,-0.5443136096000671,-0.005932928062975407,-0.04342096671462059,0.13570690155029297,0,0,0
289576014,d4:22:cd:00:30:92,0.4512205421924591,-0.5434877276420593,-0.45264700055122375,-0.5441800951957703,-0.01763874851167202,-0.059740543365478516,0.13440227508544922,0,0,0
289592681,d4:22:cd:00:30:92,0.451388955116272,-0.5434536933898926,-0.4525377154350281,-0.544165313243866,-0.010737115517258644,-0.05444417893886566,0.14799976348876953,0,0,0
289609348,d4:22:cd:00:30:92,0.4517363905906677,-0.5432004332542419,-0.4525812268257141,-0.5440937280654907,-0.019870301708579063,-0.03157053515315056,0.14798259735107422,0,0,0
289626015,d4:22:cd:00:30:92,0.4520949125289917,-0.5429171919822693,-0.45241478085517883,-0.5442171096801758,0.004498868715018034,-0.05817617475986481,0.14774322509765625,0,0,0
289642682,d4:22:cd:00:30:92,0.4526078402996063,-0.5424787402153015,-0.4522833526134491,-0.5443370342254639,-0.018580632284283638,-0.07107198238372803,0.1356210708618164,0,0,0
289659349,d4:22:cd:00:30:92,0.45356494188308716,-0.5416942238807678,-0.45207542181015015,-0.5444943904876709,0.009753658436238766,-0.1185445636510849,0.15402507781982422,0,0,0
289676016,d4:22:cd:00:30:92,0.45470333099365234,-0.5408129096031189,-0.4517419636249542,-0.5446977615356445,0.01580326072871685,-0.04772403836250305,0.1542644500732422,0,0,0
289692683,d4:22:cd:00:30:92,0.4555470645427704,-0.5401517152786255,-0.450933039188385,-0.5453187823295593,-0.014836343005299568,0.018224800005555153,0.1325082778930664,0,0,0
289709350,d4:22:cd:00:30:92,0.45585325360298157,-0.5398933291435242,-0.4499855041503906,-0.5461008548736572,-0.009909670799970627,-0.002108844695612788,0.1397848129272461,0,0,0
289726017,d4:22:cd:00:30:92,0.4560346007347107,-0.5397501587867737,-0.4493265748023987,-0.5466333627700806,-0.007497965823858976,-0.04084766283631325,0.14589595794677734,0,0,0
289742684,d4:22:cd:00:30:92,0.4563136100769043,-0.5396272540092468,-0.448552668094635,-0.5471570491790771,0.04403942823410034,-0.06850224733352661,0.15934085845947266,0,0,0
289759351,d4:22:cd:00:30:92,0.45659637451171875,-0.5394461154937744,-0.4475674629211426,-0.5479060411453247,-0.029119938611984253,-0.08306098729372025,0.14031219482421875,0,0,0
289776018,d4:22:cd:00:30:92,0.4573029577732086,-0.5389321446418762,-0.44643688201904297,-0.5487444996833801,-0.014322933740913868,-0.16931955516338348,0.16210460662841797,0,0,0
289792685,d4:22:cd:00:30:92,0.45859354734420776,-0.5378707647323608,-0.4457484781742096,-0.5492680668830872,-0.04531188681721687,-0.053420938551425934,0.12020492553710938,0,0,0
289809352,d4:22:cd:00:30:92,0.46008631587028503,-0.5363974571228027,-0.44586408138275146,-0.5493667721748352,-0.03751843795180321,-0.1135973334312439,0.1297016143798828,0,0,0
289826019,d4:22:cd:00:30:92,0.4619486331939697,-0.5345293879508972,-0.4461686909198761,-0.5493772029876709,-0.02403010055422783,-0.12309394776821136,0.13585758209228516,0,0,0
289842686,d4:22:cd:00:30:92,0.46338361501693726,-0.5329667925834656,-0.4459465444087982,-0.5498670935630798,0.02583318017423153,0.020595600828528404,0.15350723266601562,0,0,0
289859353,d4:22:cd:00:30:92,0.46416613459587097,-0.5320164561271667,-0.44508734345436096,-0.5508227348327637,-0.014646580442786217,-0.02433653734624386,0.13476181030273438,0,0,0
289876020,d4:22:cd:00:30:92,0.4648885428905487,-0.5311078429222107,-0.4444485902786255,-0.5516054630279541,-0.012100321240723133,-0.05897478759288788,0.13511371612548828,0,0,0
289892687,d4:22:cd:00:30:92,0.46567302942276,-0.5300648212432861,-0.44391700625419617,-0.5523746013641357,-0.03629738464951515,-0.08036073297262192,0.1528797149658203,0,0,0
289909354,d4:22:cd:00:30:92,0.4666069447994232,-0.5288617610931396,-0.44324779510498047,-0.5532764196395874,-0.019054703414440155,-0.1839475929737091,0.15254878997802734,0,0,0
289926021,d4:22:cd:00:30:92,0.4681718945503235,-0.5270843505859375,-0.442249596118927,-0.5544480085372925,-0.015086677856743336,-0.20919539034366608,0.15240955352783203,0,0,0
289942688,d4:22:cd:00:30:92,0.4700377881526947,-0.524983823299408,-0.4411136507987976,-0.5557655692100525,-0.037752680480480194,-0.07504134625196457,0.13344573974609375,0,0,0
289959355,d4:22:cd:00:30:92,0.4716155230998993,-0.5229776501655579,-0.4401780664920807,-0.5570605993270874,-0.02552272006869316,0.004579333588480949,0.13817501068115234,0,0,0
289976022,d4:22:cd:00:30:92,0.47263777256011963,-0.5214370489120483,-0.4387948513031006,-0.5587272047996521,-0.008193537592887878,-0.08633456379175186,0.14035320281982422,0,0,0
289992689,d4:22:cd:00:30:92,0.4738219082355499,-0.5197859406471252,-0.43754610419273376,-0.5602399110794067,-0.001755917794071138,-0.10995473712682724,0.15031719207763672,0,0,0
290009356,d4:22:cd:00:30:92,0.4752412438392639,-0.5178802609443665,-0.4364900290966034,-0.5616248846054077,-0.03638947382569313,-0.17103569209575653,0.13126087188720703,0,0,0
290026023,d4:22:cd:00:30:92,0.4769752025604248,-0.5156461596488953,-0.4350575804710388,-0.5633193254470825,0.017382603138685226,-0.17569571733474731,0.16585636138916016,0,0,0
290042690,d4:22:cd:00:30:92,0.4789324402809143,-0.5134997367858887,-0.4330558478832245,-0.5651587247848511,0.0008082228596322238,-0.16225633025169373,0.14627838134765625,0,0,0
290059357,d4:22:cd:00:30:92,0.4815524220466614,-0.5108356475830078,-0.43160831928253174,-0.5664525628089905,-0.019282685592770576,-0.23660768568515778,0.14108848571777344,0,0,0
290076024,d4:22:cd:00:30:92,0.48426029086112976,-0.5079353451728821,-0.43027976155281067,-0.5677614212036133,-0.06324142962694168,-0.07702100276947021,0.12743854522705078,0,0,0
290092691,d4:22:cd:00:30:92,0.48641395568847656,-0.5053271651268005,-0.42864686250686646,-0.5694803595542908,-0.03814539313316345,-0.08516089618206024,0.14554691314697266,0,0,0
290109358,d4:22:cd:00:30:92,0.48825159668922424,-0.5028718113899231,-0.42627444863319397,-0.5718572735786438,-0.030775051563978195,-0.173641175031662,0.1387920379638672,0,0,0
290126025,d4:22:cd:00:30:92,0.49032512307167053,-0.4999188482761383,-0.42387038469314575,-0.5744531154632568,0.003811119357123971,-0.1575252264738083,0.10255908966064453,0,0,0
290142692,d4:22:cd:00:30:92,0.49214741587638855,-0.4970453679561615,-0.4208012819290161,-0.5776359438896179,0.008933366276323795,-0.009477396495640278,0.15688514709472656,0,0,0
290159359,d4:22:cd:00:30:92,0.49340149760246277,-0.4946485757827759,-0.4175572395324707,-0.5809681415557861,-0.037860188633203506,-0.05036104470491409,0.16521930694580078,0,0,0
290176026,d4:22:cd:00:30:92,0.495137482881546,-0.4919963479042053,-0.4145781397819519,-0.583869457244873,0.10625269263982773,-0.20542830228805542,0.12717342376708984,0,0,0
290192693,d4:22:cd:00:30:92,0.4974513351917267,-0.48613810539245605,-0.4098455607891083,-0.5901175141334534,0.17711569368839264,0.25957030057907104,-0.06576251983642578,0,0,0
290209360,d4:22:cd:00:30:92,0.4997730851173401,-0.48222991824150085,-0.40639206767082214,-0.5937398076057434,-0.32176366448402405,-0.5814611315727234,0.3624439239501953,0,0,0
290226027,d4:22:cd:00:30:92,0.5019721388816833,-0.4793681502342224,-0.4039577841758728,-0.5958591103553772,-0.0077460650354623795,0.10708796232938766,0.1842966079711914,0,0,0
290242694,d4:22:cd:00:30:92,0.5030887722969055,-0.4775223433971405,-0.4017333984375,-0.5979000329971313,-0.008752543479204178,0.09914028644561768,0.17975616455078125,0,0,0
290259361,d4:22:cd:00:30:92,0.504117488861084,-0.47561681270599365,-0.40058425068855286,-0.5993217825889587,-0.06460530310869217,-0.061637721955776215,0.15052032470703125,0,0,0
290276028,d4:22:cd:00:30:92,0.5053024888038635,-0.47323280572891235,-0.3998948931694031,-0.6006696224212646,-0.07668148726224899,-0.1407230794429779,0.13658523559570312,0,0,0
290292695,d4:22:cd:00:30:92,0.5065333247184753,-0.47070762515068054,-0.39882373809814453,-0.6023271083831787,-0.005514511838555336,-0.16544651985168457,0.16382217407226562,0,0,0
290309362,d4:22:cd:00:30:92,0.5074455142021179,-0.46943730115890503,-0.3964492082595825,-0.6041157245635986,0.18577614426612854,0.10309691727161407,0.2969026565551758,0,0,0
290326029,d4:22:cd:00:30:92,0.5082171559333801,-0.46889278292655945,-0.39433085918426514,-0.6052753925323486,-0.038756027817726135,-0.023271946236491203,0.17551136016845703,0,0,0
290342696,d4:22:cd:00:30:92,0.5086166262626648,-0.4684363305568695,-0.3926599323749542,-0.606378436088562,-0.03318742662668228,-0.07937369495630264,0.15948009490966797,0,0,0
290359363,d4:22:cd:00:30:92,0.5087460279464722,-0.4681299328804016,-0.3909933269023895,-0.607582151889801,-0.02051960676908493,-0.01295279897749424,0.1629037857055664,0,0,0
290376030,d4:22:cd:00:30:92,0.5085354447364807,-0.4680129289627075,-0.3895367681980133,-0.6087831258773804,-0.040851909667253494,-0.04727746173739433,0.1502513885498047,0,0,0
290392697,d4:22:cd:00:30:92,0.5084062814712524,-0.4676992893218994,-0.3884417712688446,-0.6098307967185974,-0.0263117216527462,-0.10123773664236069,0.17201900482177734,0,0,0
290409364,d4:22:cd:00:30:92,0.508507251739502,-0.4670986831188202,-0.38720157742500305,-0.6109945178031921,-0.01263317558914423,-0.16741031408309937,0.15393638610839844,0,0,0
290426031,d4:22:cd:00:30:92,0.5092459917068481,-0.46581903100013733,-0.38575589656829834,-0.6122691631317139,-0.02338973619043827,-0.2646782398223877,0.13652610778808594,0,0,0
290442698,d4:22:cd:00:30:92,0.5109564065933228,-0.46356427669525146,-0.3842102587223053,-0.6135260462760925,-0.023778202012181282,-0.2244168370962143,0.1629199981689453,0,0,0
290459365,d4:22:cd:00:30:92,0.5124784111976624,-0.46141767501831055,-0.3825524151325226,-0.6149091124534607,-0.00991861056536436,-0.017757434397935867,0.1636180877685547,0,0,0
290476032,d4:22:cd:00:30:92,0.5137941837310791,-0.4594874680042267,-0.38101816177368164,-0.6162078976631165,-0.0012244039680808783,-0.03234925493597984,0.17895221710205078,0,0,0
290492699,d4:22:cd:00:30:92,0.5148313641548157,-0.4578590393066406,-0.37967684864997864,-0.6173810362815857,-0.005446340423077345,-0.06040549278259277,0.18542003631591797,0,0,0
290509366,d4:22:cd:00:30:92,0.5159185528755188,-0.4561438262462616,-0.3782106041908264,-0.6186418533325195,-0.01967785693705082,-0.15943312644958496,0.16016578674316406,0,0,0
290526033,d4:22:cd:00:30:92,0.517275869846344,-0.4540674686431885,-0.3765566051006317,-0.6200432181358337,-0.03000236675143242,-0.23437926173210144,0.144775390625,0,0,0
290542700,d4:22:cd:00:30:92,0.5192772746086121,-0.4513920247554779,-0.37492358684539795,-0.6213122010231018,-0.018606336787343025,-0.11864425241947174,0.14578628540039062,0,0,0
290559367,d4:22:cd:00:30:92,0.5210162401199341,-0.44882747530937195,-0.37302011251449585,-0.6228578686714172,-0.028143856674432755,-0.12151102721691132,0.15995407104492188,0,0,0
290576034,d4:22:cd:00:30:92,0.5229965448379517,-0.44589099287986755,-0.37066319584846497,-0.6247116923332214,-0.010707834735512733,-0.174376979470253,0.171478271484375,0,0,0
290592701,d4:22:cd:00:30:92,0.5249274969100952,-0.4429149031639099,-0.3679627776145935,-0.6268021464347839,0.0025283785071223974,-0.009100106544792652,0.16575050354003906,0,0,0
290609368,d4:22:cd:00:30:92,0.5265942215919495,-0.44033586978912354,-0.36560603976249695,-0.6285978555679321,0.013472690246999264,0.04373008757829666,0.19068050384521484,0,0,0
290626035,d4:22:cd:00:30:92,0.5281206369400024,-0.4379838705062866,-0.3634530305862427,-0.6302068829536438,0.011149496771395206,-0.14911644160747528,0.15913867950439453,0,0,0
290642702,d4:22:cd:00:30:92,0.5309742093086243,-0.43452921509742737,-0.3613339066505432,-0.6314180493354797,0.002685955259948969,-0.33708032965660095,0.14200973510742188,0,0,0
290659369,d4:22:cd:00:30:92,0.5342208743095398,-0.4305935502052307,-0.3589468002319336,-0.6327357888221741,-0.023379454389214516,-0.15762558579444885,0.1529531478881836,0,0,0
290676036,d4:22:cd:00:30:92,0.5375767350196838,-0.4262886345386505,-0.3561728894710541,-0.6343740820884705,-0.038940202444791794,-0.068328358232975,0.15679264068603516,0,0,0
290692703,d4:22:cd:00:30:92,0.540490448474884,-0.4219749867916107,-0.3527394235134125,-0.6366963982582092,-0.028391733765602112,-0.03586064279079437,0.13818931579589844,0,0,0
290709370,d4:22:cd:00:30:92,0.5434183478355408,-0.41720813512802124,-0.348569393157959,-0.6396355032920837,-0.04042578116059303,-0.19785813987255096,0.1043996810913086,0,0,0
290726037,d4:22:cd:00:30:92,0.5464308857917786,-0.4119753837585449,-0.3437589406967163,-0.6430548429489136,-0.02288694493472576,-0.126011461019516,0.13410377502441406,0,0,0
290742704,d4:22:cd:00:30:92,0.549044668674469,-0.4065419137477875,-0.33804529905319214,-0.6473014950752258,-0.03872507065534592,-0.12026539444923401,0.10552120208740234,0,0,0
290759371,d4:22:cd:00:30:92,0.5510088205337524,-0.4010615646839142,-0.3322690725326538,-0.6520248055458069,-0.17122210562229156,-0.0012548017548397183,0.12553787231445312,0,0,0
290776038,d4:22:cd:00:30:92,0.5530237555503845,-0.3952314555644989,-0.3276280462741852,-0.6562140583992004,0.1213672012090683,0.0901675820350647,0.21885395050048828,0,0,0
290792705,d4:22:cd:00:30:92,0.5547821521759033,-0.3909795582294464,-0.32458239793777466,-0.658785343170166,0.061597153544425964,0.2356405407190323,0.2195892333984375,0,0,0
290809372,d4:22:cd:00:30:92,0.5562318563461304,-0.38775402307510376,-0.3227406144142151,-0.6603721976280212,0.014963074587285519,0.026908501982688904,0.1799163818359375,0,0,0
290826039,d4:22:cd:00:30:92,0.5577110648155212,-0.38473308086395264,-0.320864200592041,-0.6618043780326843,0.032176144421100616,-0.1284942477941513,0.16087627410888672,0,0,0
290842706,d4:22:cd:00:30:92,0.5596780180931091,-0.3810151219367981,-0.31925445795059204,-0.6630719900131226,0.06624666601419449,-0.09381688386201859,0.12127494812011719,0,0,0
290859373,d4:22:cd:00:30:92,0.561447024345398,-0.378091037273407,-0.3169264495372772,-0.6643658876419067,0.02010420896112919,-0.047656986862421036,0.2048320770263672,0,0,0
290876040,d4:22:cd:00:30:92,0.5632586479187012,-0.37514516711235046,-0.3140482008457184,-0.6658675670623779,-0.007193094119429588,-0.05180449038743973,0.11609649658203125,0,0,0
290892707,d4:22:cd:00:30:92,0.5647665858268738,-0.37178200483322144,-0.31059303879737854,-0.6680935621261597,0.02428300678730011,-0.06467839330434799,0.10031604766845703,0,0,0
290909374,d4:22:cd:00:30:92,0.5665655136108398,-0.3678058683872223,-0.3073606789112091,-0.6702625155448914,-0.07434387505054474,-0.023131132125854492,0.13955974578857422,0,0,0
290926041,d4:22:cd:00:30:92,0.568412721157074,-0.3636828362941742,-0.30462002754211426,-0.6721968054771423,0.027055013924837112,-0.06462966650724411,0.1461496353149414,0,0,0
290942708,d4:22:cd:00:30:92,0.5701696872711182,-0.35976237058639526,-0.30123090744018555,-0.6743424534797668,0.01472659781575203,-0.07561733573675156,0.15719318389892578,0,0,0
290959375,d4:22:cd:00:30:92,0.5716400742530823,-0.35636892914772034,-0.2975445091724396,-0.676532506942749,-0.07248413562774658,-0.1297338455915451,0.17139816284179688,0,0,0
290976042,d4:22:cd:00:30:92,0.5730991959571838,-0.3532848656177521,-0.2945496439933777,-0.6782239079475403,-0.050136078149080276,-0.05492383986711502,0.16836929321289062,0,0,0
290992709,d4:22:cd:00:30:92,0.5741080045700073,-0.3505691587924957,-0.29172077775001526,-0.680000364780426,-0.019514134153723717,-0.03070017509162426,0.12749385833740234,0,0,0
291009376,d4:22:cd:00:30:92,0.5752031207084656,-0.3475657105445862,-0.28883227705955505,-0.681847095489502,-0.02076580561697483,-0.10299722850322723,0.13082027435302734,0,0,0
291026043,d4:22:cd:00:30:92,0.5764667987823486,-0.34431037306785583,-0.28538066148757935,-0.6838819980621338,0.026829712092876434,-0.029745103791356087,0.19834613800048828,0,0,0
291042710,d4:22:cd:00:30:92,0.5770975351333618,-0.34140899777412415,-0.28158465027809143,-0.6863735318183899,-0.02714531309902668,-0.1275438666343689,0.1334857940673828,0,0,0
291059377,d4:22:cd:00:30:92,0.5778407454490662,-0.33812251687049866,-0.27686941623687744,-0.6892871260643005,0.010694424621760845,-0.11181347072124481,0.14432907104492188,0,0,0
291076044,d4:22:cd:00:30:92,0.5782885551452637,-0.33436456322669983,-0.2707606554031372,-0.6931605339050293,-0.041809216141700745,-0.2371702641248703,0.07025909423828125,0,0,0
291092711,d4:22:cd:00:30:92,0.5790826678276062,-0.3300907611846924,-0.26452863216400146,-0.6969419121742249,0.0013470008270815015,-0.03873702883720398,0.13948345184326172,0,0,0
291109378,d4:22:cd:00:30:92,0.5800508260726929,-0.32601019740104675,-0.2591530382633209,-0.7000702023506165,-0.005888001993298531,0.06108978018164635,0.15164852142333984,0,0,0
291126045,d4:22:cd:00:30:92,0.5813770294189453,-0.32223930954933167,-0.25516316294670105,-0.702178418636322,0.05102186277508736,-0.040285974740982056,0.17904090881347656,0,0,0
291142712,d4:22:cd:00:30:92,0.582959771156311,-0.3188491761684418,-0.25158098340034485,-0.7037046551704407,0.03622720390558243,-0.02901734597980976,0.18303203582763672,0,0,0
291159379,d4:22:cd:00:30:92,0.5852695107460022,-0.3151448667049408,-0.24853120744228363,-0.7045393586158752,0.019688138738274574,-0.14771166443824768,0.13567829132080078,0,0,0
291176046,d4:22:cd:00:30:92,0.587890625,-0.3113853931427002,-0.24598534405231476,-0.704922080039978,0.013459726236760616,-0.011319478042423725,0.15723896026611328,0,0,0
291192713,d4:22:cd:00:30:92,0.5903319716453552,-0.3076913058757782,-0.2433079183101654,-0.7054328322410583,-0.009314678609371185,-0.08655919134616852,0.12029552459716797,0,0,0
291209380,d4:22:cd:00:30:92,0.5932372808456421,-0.30300918221473694,-0.24053676426410675,-0.7059726119041443,-0.009985776618123055,-0.15187202394008636,0.04948139190673828,0,0,0
291226047,d4:22:cd:00:30:92,0.596179187297821,-0.29766103625297546,-0.2375318557024002,-0.7067864537239075,0.001626727287657559,0.060654040426015854,0.13825416564941406,0,0,0
291242714,d4:22:cd:00:30:92,0.59828782081604,-0.29287928342819214,-0.23365168273448944,-0.7082942128181458,0.008875252678990364,0.1664046198129654,0.1846637725830078,0,0,0
291259381,d4:22:cd:00:30:92,0.5999950170516968,-0.2880977690219879,-0.22857017815113068,-0.7104658484458923,-0.027013998478651047,-0.11183235794305801,0.062415122985839844,0,0,0
291276048,d4:22:cd:00:30:92,0.602432131767273,-0.28198233246803284,-0.22412751615047455,-0.7122699022293091,-0.06551723182201385,-0.20858709514141083,0.09879589080810547,0,0,0
291292715,d4:22:cd:00:30:92,0.6041769981384277,-0.2767224609851837,-0.22036008536815643,-0.7140283584594727,0.04004603251814842,0.20900696516036987,0.2609834671020508,0,0,0
291309382,d4:22:cd:00:30:92,0.6052685379981995,-0.27240025997161865,-0.21655702590942383,-0.7159267663955688,-0.008109943941235542,-0.020314756780862808,0.15836811065673828,0,0,0
291326049,d4:22:cd:00:30:92,0.6060689091682434,-0.26806309819221497,-0.21237140893936157,-0.718137264251709,-0.002404887694865465,0.000712559325620532,0.1556987762451172,0,0,0
291342716,d4:22:cd:00:30:92,0.6065468788146973,-0.263957142829895,-0.20763415098190308,-0.7206356525421143,0.02843632362782955,-0.0038411819841712713,0.13808822631835938,0,0,0
291359383,d4:22:cd:00:30:92,0.6075509190559387,-0.25926101207733154,-0.20331962406635284,-0.7227218151092529,0.022486744448542595,-0.1010715514421463,0.11345577239990234,0,0,0
291376050,d4:22:cd:00:30:92,0.6088277101516724,-0.2542818486690521,-0.19892235100269318,-0.7246374487876892,0.04555998742580414,-0.05259125679731369,0.11048507690429688,0,0,0
291392717,d4:22:cd:00:30:92,0.6102256178855896,-0.24896471202373505,-0.1940833181142807,-0.7266174554824829,0.05678838491439819,-0.09328234940767288,0.047794342041015625,0,0,0
291409384,d4:22:cd:00:30:92,0.6122390627861023,-0.2421642392873764,-0.18918514251708984,-0.7285112738609314,0.12412970513105392,-0.04658646881580353,0.02176666259765625,0,0,0
291426051,d4:22:cd:00:30:92,0.6141440868377686,-0.23455095291137695,-0.1836380511522293,-0.7308146357536316,0.034051865339279175,0.083078533411026,0.020127296447753906,0,0,0
291442718,d4:22:cd:00:30:92,0.6157700419425964,-0.22686386108398438,-0.17869041860103607,-0.7330961227416992,-0.014518172480165958,0.031940001994371414,0.18567466735839844,0,0,0
291459385,d4:22:cd:00:30:92,0.6166466474533081,-0.2201535999774933,-0.17424416542053223,-0.7354715466499329,-0.10236301273107529,-0.0934525579214096,0.23626041412353516,0,0,0
291476052,d4:22:cd:00:30:92,0.6173608303070068,-0.2151261419057846,-0.1708558052778244,-0.7371531128883362,-0.06757847219705582,-0.12177544832229614,0.2758598327636719,0,0,0
291492719,d4:22:cd:00:30:92,0.618193507194519,-0.21051272749900818,-0.1682165265083313,-0.738393247127533,0.0025517356116324663,0.06351076066493988,0.12232303619384766,0,0,0
291509386,d4:22:cd:00:30:92,0.619209885597229,-0.2056722342967987,-0.1650242656469345,-0.7396251559257507,0.019688362255692482,0.04822281002998352,0.10894489288330078,0,0,0
291526053,d4:22:cd:00:30:92,0.6204586625099182,-0.20097622275352478,-0.16172246634960175,-0.740598201751709,-0.030435871332883835,-0.11529010534286499,0.1788349151611328,0,0,0
291542720,d4:22:cd:00:30:92,0.6216483116149902,-0.19627264142036438,-0.1586291342973709,-0.7415304780006409,-0.02304038591682911,-0.1203043982386589,0.1631307601928711,0,0,0
291559387,d4:22:cd:00:30:92,0.622704029083252,-0.19201231002807617,-0.1555279642343521,-0.7424163818359375,-0.0018592925043776631,0.025950413197278976,0.20580482482910156,0,0,0
291576054,d4:22:cd:00:30:92,0.6237658858299255,-0.18844883143901825,-0.15218399465084076,-0.7431308031082153,-0.015587234869599342,0.018669813871383667,0.20377635955810547,0,0,0
291592721,d4:22:cd:00:30:92,0.6247131824493408,-0.18539804220199585,-0.14843147993087769,-0.7438609600067139,-0.013747052289545536,0.04201294854283333,0.15841960906982422,0,0,0
291609388,d4:22:cd:00:30:92,0.6257221102714539,-0.18196217715740204,-0.14491339027881622,-0.7445548176765442,0.06557898223400116,-0.09883005172014236,0.11377334594726562,0,0,0
291626055,d4:22:cd:00:30:92,0.6269317269325256,-0.1784995198249817,-0.14172875881195068,-0.7449883818626404,0.03105880133807659,-0.011447439901530743,0.13602828979492188,0,0,0
291642722,d4:22:cd:00:30:92,0.6280602216720581,-0.17493696510791779,-0.13847431540489197,-0.7454947233200073,-0.02442711591720581,0.045863740146160126,0.12749195098876953,0,0,0
291659389,d4:22:cd:00:30:92,0.6288620233535767,-0.17097386717796326,-0.1343809962272644,-0.7464867830276489,-0.05402715876698494,0.1817326843738556,0.01930522918701172,0,0,0
291676056,d4:22:cd:00:30:92,0.6294757127761841,-0.16579192876815796,-0.12933547794818878,-0.7480279207229614,0.038337502628564835,0.06303925812244415,-0.0057659149169921875,0,0,0
291692723,d4:22:cd:00:30:92,0.6299304962158203,-0.15971224009990692,-0.12363012880086899,-0.7499300837516785,0.021324029192328453,-0.03636287525296211,0.07106971740722656,0,0,0
291709390,d4:22:cd:00:30:92,0.6302168965339661,-0.15353256464004517,-0.11769726872444153,-0.7519320845603943,0.013429049402475357,0.043760817497968674,0.10428905487060547,0,0,0
291726057,d4:22:cd:00:30:92,0.6305536031723022,-0.14703847467899323,-0.11227262765169144,-0.7537751197814941,0.03195140138268471,0.01841702125966549,0.10576629638671875,0,0,0
291742724,d4:22:cd:00:30:92,0.6308088302612305,-0.14020150899887085,-0.10656382143497467,-0.7556903958320618,0.03811980038881302,0.2178855687379837,0.05312633514404297,0,0,0
291759391,d4:22:cd:00:30:92,0.6311711668968201,-0.13252051174640656,-0.10006844252347946,-0.7576594948768616,-0.0012386529706418514,0.043393027037382126,0.017518997192382812,0,0,0
291776058,d4:22:cd:00:30:92,0.631449818611145,-0.12444537878036499,-0.0929790511727333,-0.759696900844574,0.07075704634189606,-0.13491342961788177,0.14036273956298828,0,0,0
291792725,d4:22:cd:00:30:92,0.6314477920532227,-0.1171131581068039,-0.08635857701301575,-0.7616432309150696,0.012044275179505348,-0.3461311459541321,0.23584938049316406,0,0,0
291809392,d4:22:cd:00:30:92,0.631777822971344,-0.11095546931028366,-0.0819992870092392,-0.7627725005149841,0.05074034631252289,-0.1282060742378235,0.26833248138427734,0,0,0
291826059,d4:22:cd:00:30:92,0.6322638392448425,-0.10552486032247543,-0.07894539833068848,-0.763462483882904,0.03472447022795677,-0.06958193331956863,0.1641998291015625,0,0,0
291842726,d4:22:cd:00:30:92,0.6325154304504395,-0.10068659484386444,-0.07554605603218079,-0.7642509341239929,0.026435771957039833,-0.14343228936195374,0.22338104248046875,0,0,0
291859393,d4:22:cd:00:30:92,0.6325015425682068,-0.09626168757677078,-0.07200206816196442,-0.7651739716529846,0.0009096977300941944,0.10125070065259933,0.16642475128173828,0,0,0
291876060,d4:22:cd:00:30:92,0.6326244473457336,-0.09220205247402191,-0.06878212839365005,-0.7658683061599731,0.03989281505346298,-0.002781730378046632,0.18735599517822266,0,0,0
291892727,d4:22:cd:00:30:92,0.6330931186676025,-0.08888404816389084,-0.06623594462871552,-0.7660976648330688,0.09099318832159042,-0.10157579928636551,0.2009420394897461,0,0,0
